subj;trial;block;prior;kappa;ct;delay;fix;keypressed;R;T_Angle;resp_mod;choice_x;choice_y;init_resp_angle;choiceAngle;choiceR;RT;MT;ts_b;ts_f;ts_p;ts_d;ts_r;ts_e;m_pos_x;m_pos_y;m_clock
pilot6blocks;0;0;0;1;False;3000;True;;8;54.226748352757106;eye;L;4.475661516189575;6.681368473917245;0;56.18;8.04;1.814603100065142;1.8149813999189064;1684235372.1326978;1684235372.1495705;1684235372.9062803;1684235373.5564778;1684235376.5553017;1684235378.3707533;[];[];[]
pilot6blocks;1;0;0;1;False;1000;True;;8;128.1258068761743;eye;L;-4.338472455739975;5.872022652626037;0;126.46;7.3;1.2495581998955458;1.2496112000662833;1684235379.18838;1684235379.199944;1684235379.9542553;1684235380.454978;1684235381.4366558;1684235382.6867247;[];[];[]
pilot6blocks;2;0;0;1;False;3000;True;;8;-132.62224816661254;eye;L;-4.2689303159713745;-5.1324837282299995;0;-129.75;6.68;1.935913100023754;1.935954699991271;1684235383.502335;1684235383.5162957;1684235384.2716563;1684235384.7718444;1684235387.7689972;1684235389.7044666;[];[];[]
pilot6blocks;3;0;0;1;False;1000;True;;8;-154.558175010568;eye;L;-6.695516854524612;-2.7022663056850433;0;-158.02;7.22;2.233611200004816;2.2336837000912055;1684235390.3951218;1684235390.399402;1684235391.154286;1684235391.656025;1684235392.6366072;1684235394.8708549;[];[];[]
pilot6blocks;4;0;0;1;False;3000;True;;8;79.31579113608889;eye;L;2.0178754925727844;7.839790301956236;0;75.57;8.1;4.234121400048025;4.234174699988216;1684235395.7005837;1684235395.716613;1684235396.4702652;1684235396.9716177;1684235399.9687808;1684235404.2031038;[];[];[]
pilot6blocks;5;0;0;1;False;1000;True;;8;68.93083684664924;eye;L;3.713213801383972;7.327465425431728;0;63.13;8.21;1.0002845999551937;1.000342599931173;1684235404.964671;1684235404.981689;1684235405.7376502;1684235406.2374287;1684235407.2190013;1684235408.219148;[];[];[]
pilot6blocks;6;0;0;1;False;3000;True;;8;-53.51247003009525;eye;L;4.954787850379944;-5.056477957963943;0;-45.58;7.08;1.0658207000233233;1.065907399985008;1684235408.912927;1684235408.9318259;1684235409.6875217;1684235410.1876352;1684235413.1879866;1684235414.2535505;[];[];[]
pilot6blocks;7;0;0;1;False;1000;True;;8;160.86371208253635;eye;L;-6.413369864225388;2.4339653000235555;0;159.22;6.86;0.9989024000242352;0.9989732999820262;1684235415.0778294;1684235415.0984843;1684235415.853375;1684235416.35381;1684235417.3363876;1684235418.3348668;[];[];[]
pilot6blocks;8;0;0;1;False;3000;True;;8;-72.00360005344933;eye;L;2.2573593854904175;-6.016098475456237;0;-69.43;6.43;1.0147575000301003;1.014852299937047;1684235419.0836568;1684235419.0982113;1684235419.8523526;1684235420.3529928;1684235423.3534758;1684235424.3682926;[];[];[]
pilot6blocks;9;0;0;1;False;1000;True;;8;143.56477726230275;eye;L;-5.759664803743362;4.353200662136078;0;142.92;7.22;0.8353625000454485;0.8354206000221893;1684235425.1955597;1684235425.2147439;1684235425.9693758;1684235426.469013;1684235427.4508858;1684235428.2865374;[];[];[]
pilot6blocks;10;0;0;1;False;3000;True;;8;97.41466202642086;eye;L;-3.0477455854415894;7.355040468648076;0;112.51;7.96;0.8817952000536025;0.8818553000455722;1684235428.9974144;1684235429.0144691;1684235429.7681603;1684235430.2695193;1684235433.2694256;1684235434.1506605;[];[];[]
pilot6blocks;11;0;0;1;False;1000;True;;8;-25.56893674786011;eye;L;7.709929049015045;-3.905260598659515;0;-26.86;8.64;1.832873999956064;1.8329307999229059;1684235434.892359;1684235434.8973806;1684235435.6508324;1684235436.1520755;1684235437.134557;1684235438.9672132;[];[];[]
pilot6blocks;12;0;0;1;False;1000;True;;8;20.38122384329016;eye;L;8.133831858634949;1.9791837528347969;0;13.68;8.37;0.8165939999744296;0.8166427999967709;1684235439.6392994;1684235439.6464176;1684235440.4025276;1684235440.9028854;1684235441.8835447;1684235442.6997747;[];[];[]
pilot6blocks;13;0;0;1;False;3000;True;;8;62.82479669812839;eye;L;5.1782368421554565;6.03156682178378;0;49.35;7.95;0.9654342000139877;0.9654802000150084;1684235443.499024;1684235443.5138109;1684235444.268321;1684235444.7693121;1684235447.7669277;1684235448.7316248;[];[];[]
pilot6blocks;14;0;0;1;False;1000;True;;8;131.10007975980537;eye;L;-4.96429169178009;5.241832907125353;0;133.44;7.22;1.4183874001028016;1.418431399972178;1684235449.424264;1684235449.4293838;1684235450.1841865;1684235450.6834524;1684235451.66502;1684235453.083344;[];[];[]
pilot6blocks;15;0;0;1;False;3000;True;;8;108.70512454735693;eye;L;-3.688154101371765;6.627510384097695;0;119.1;7.58;1.4328018999658525;1.4328777000773698;1684235453.9359121;1684235453.9459133;1684235454.7009418;1684235455.2013752;1684235458.2010152;1684235459.633749;[];[];[]
pilot6blocks;16;0;0;1;False;3000;True;;8;-10.495694456346957;eye;L;8.207642912864685;-4.025957255065441;0;-26.13;9.14;1.648481099982746;1.6485634000273421;1684235460.4828475;1684235460.4958737;1684235461.2502656;1684235461.75254;1684235464.7509713;1684235466.3987737;[];[];[]
pilot6blocks;17;0;0;1;False;1000;True;;8;-2.339477987355264;eye;L;7.651634216308594;-0.3830411463975906;0;-2.87;7.66;0.832816099980846;0.8328992000315338;1684235467.339093;1684235467.345117;1684235468.1007347;1684235468.6026955;1684235469.5833783;1684235470.4158084;[];[];[]
pilot6blocks;18;0;0;1;False;1000;True;;8;-94.5024076857996;eye;L;-0.5509872436523438;-7.23616307079792;0;-94.35;7.26;1.331030200002715;1.331475600018166;1684235471.1725178;1684235471.1785188;1684235471.9341342;1684235472.4330235;1684235473.4171605;1684235474.7486005;[];[];[]
pilot6blocks;19;0;0;1;False;3000;True;;8;-112.43222313536664;eye;L;-2.3664887845516205;-6.756592963635921;0;-109.3;7.16;1.54913379997015;1.5491782000754029;1684235475.465051;1684235475.4788516;1684235476.232548;1684235476.7334604;1684235479.7321365;1684235481.281517;[];[];[]
pilot6blocks;20;0;0;1;False;3000;True;;8;-149.95295031068736;eye;L;-6.145997315645218;-4.817537216842174;0;-141.91;7.81;2.2996191999409348;2.299682400072925;1684235481.9904315;1684235481.9955673;1684235482.748142;1684235483.2509043;1684235486.2482297;1684235488.5479937;[];[];[]
pilot6blocks;21;0;0;1;False;1000;True;;8;-57.58819573543441;eye;L;4.638854205608368;-5.212979261577129;0;-48.34;6.98;0.981027300003916;0.9811174001079053;1684235489.26902;1684235489.2775972;1684235490.0319407;1684235490.5333624;1684235491.5158617;1684235492.4972148;[];[];[]
pilot6blocks;22;0;0;1;False;3000;True;;8;27.76021046523904;eye;L;7.540816843509674;2.5275579191744324;0;18.53;7.95;1.7484342999523506;1.7485086000524461;1684235493.1810327;1684235493.1945648;1684235493.9489772;1684235494.4491837;1684235497.4475503;1684235499.19647;[];[];[]
pilot6blocks;23;0;0;1;False;1000;True;;8;47.000105572196965;eye;L;4.893198609352112;6.047687233239412;0;51.02;7.78;1.4005436999723315;1.4006140000419691;1684235499.9035125;1684235499.9106336;1684235500.6651173;1684235501.165197;1684235502.147546;1684235503.5478346;[];[];[]
pilot6blocks;24;0;0;1;False;3000;True;;8;111.09809039313676;eye;L;-3.2413036823272705;6.088180981948971;0;118.03;6.9;1.0170896999770775;1.017129199928604;1684235504.3233385;1684235504.3264608;1684235505.0819674;1684235505.584241;1684235508.5791345;1684235509.596351;[];[];[]
pilot6blocks;25;0;0;1;False;1000;True;;8;50.369218324024004;eye;L;5.0311413407325745;5.984054312109947;0;49.94;7.82;0.8990957000060007;0.8991790000582114;1684235510.4125998;1684235510.4270682;1684235511.1823735;1684235511.6823459;1684235512.6641545;1684235513.5638244;[];[];[]
pilot6blocks;26;0;0;1;False;1000;True;;8;-160.73801955417557;eye;L;-7.0266377329826355;-2.5288932502269743;0;-160.21;7.47;1.3146237999899313;1.3147188000148162;1684235514.4001868;1684235514.4103434;1684235515.164445;1684235515.666316;1684235516.6483328;1684235517.96304;[];[];[]
pilot6blocks;27;0;0;1;False;3000;True;;8;-93.32926911007058;eye;L;-1.2146768867969513;-7.550811441242694;0;-99.14;7.65;1.1332437000237405;1.1333134999731556;1684235518.768354;1684235518.776424;1684235519.5307145;1684235520.0310152;1684235523.0307443;1684235524.164347;[];[];[]
pilot6blocks;28;0;0;1;False;3000;True;;8;-99.3068982896792;eye;L;-0.6645446717739105;-7.846980746090412;0;-94.84;7.88;0.9645318000111729;0.964585900073871;1684235524.9003108;1684235524.9101686;1684235525.662859;1684235526.1637783;1684235529.1639168;1684235530.1285605;[];[];[]
pilot6blocks;29;0;0;1;False;1000;True;;8;153.76686979073298;eye;L;-6.640122324228287;1.8415504217147827;0;164.5;6.89;1.6510789999738336;1.6511397999711335;1684235530.9486568;1684235530.9586556;1684235531.7128708;1684235532.213813;1684235533.1948946;1684235534.8463454;[];[];[]
pilot6blocks;30;0;0;1;False;3000;True;;8;-29.398249428600124;eye;L;6.743058145046234;-3.660009102523327;0;-28.49;7.67;2.184104699990712;2.1841558000305668;1684235535.7422285;1684235535.758227;1684235536.5125613;1684235537.0143933;1684235540.0117536;1684235542.1957686;[];[];[]
pilot6blocks;31;0;0;1;False;1000;True;;8;-36.2925489260112;eye;L;6.917889416217804;-4.956174646317958;0;-35.62;8.51;1.384591400041245;1.3846465999959037;1684235542.9054542;1684235542.9257016;1684235543.67857;1684235544.1795664;1684235545.1612024;1684235546.5459554;[];[];[]
pilot6blocks;32;0;0;1;False;1000;True;;8;-52.26412816874994;eye;L;4.371619820594788;-5.86831574589014;0;-53.32;7.32;0.7334369000745937;0.7334823999553919;1684235547.2456079;1684235547.2578607;1684235548.0123856;1684235548.512929;1684235549.4945164;1684235550.2278912;[];[];[]
pilot6blocks;33;0;0;1;False;3000;True;;8;-72.19640651621062;eye;L;4.162561357021332;-8.24198030680418;0;-63.2;9.23;1.4158185000997037;1.4159163000294939;1684235550.9866428;1684235550.9920175;1684235551.7451806;1684235552.2477045;1684235555.2473195;1684235556.662825;[];[];[]
pilot6blocks;34;0;0;1;False;3000;True;;8;143.26568583969137;eye;L;-4.669124484062195;4.310725032538175;0;137.29;6.35;0.7323740000138059;0.7324343000072986;1684235557.5413344;1684235557.5573463;1684235558.3115082;1684235558.8137753;1684235561.8112006;1684235562.5441096;[];[];[]
pilot6blocks;35;0;0;1;False;1000;True;;8;-20.002604674120313;eye;L;7.007825970649719;-2.422347258031368;0;-19.07;7.41;0.7503760999534279;0.7504418999888003;1684235563.3706608;1684235563.3906603;1684235564.1445312;1684235564.6470163;1684235565.6274533;1684235566.3777862;[];[];[]
pilot6blocks;36;0;0;1;False;3000;True;;8;36.09795636035026;eye;L;6.856643319129944;4.34961162507534;0;32.39;8.12;1.8835600999882445;1.8836281999247149;1684235567.2284522;1684235567.240875;1684235567.9922006;1684235568.4944015;1684235571.5107346;1684235573.3946831;[];[];[]
pilot6blocks;37;0;0;1;False;1000;True;;8;126.59133358294795;eye;L;-3.9737919867038727;6.260626365244388;0;122.4;7.42;0.91743030003272;0.9174774999264628;1684235574.262882;1684235574.2728796;1684235575.0279207;1684235575.5287883;1684235576.5097146;1684235577.4273405;[];[];[]
pilot6blocks;38;0;0;1;False;3000;True;;8;103.16179544206209;eye;L;-2.6736218631267548;6.802622332423925;0;111.46;7.31;1.365942900069058;1.365997500019148;1684235578.3950138;1684235578.406034;1684235579.159594;1684235579.6610527;1684235582.6602776;1684235584.0262027;[];[];[]
pilot6blocks;39;0;0;1;False;1000;True;;8;-131.90191029957458;eye;L;-4.897239327430725;-6.247356256842613;0;-128.09;7.94;0.6976988000096753;0.6977504999376833;1684235584.8812108;1684235584.8902044;1684235585.6435397;1684235586.144295;1684235587.1269035;1684235587.8255324;[];[];[]
pilot6blocks;40;0;0;1;False;3000;True;;8;-136.38567421027813;eye;L;-4.871385186910629;-6.163767117261886;0;-128.32;7.86;1.4660726999863982;1.4661141000688076;1684235588.512577;1684235588.5227735;1684235589.2762516;1684235589.7780423;1684235592.775812;1684235594.242194;[];[];[]
pilot6blocks;41;0;0;1;False;1000;True;;8;60.66832008991389;eye;L;3.8981932997703552;7.119203734025358;0;61.3;8.12;1.7499430000316352;1.7499938999535516;1684235595.063659;1684235595.0721843;1684235595.8262749;1684235596.3270602;1684235597.3090346;1684235599.0589237;[];[];[]
pilot6blocks;42;0;0;1;False;3000;True;;8;98.85593637422367;eye;L;-2.1064745783805847;7.495831147022545;0;105.7;7.79;0.7149444000096992;0.7150196000002325;1684235599.8598337;1684235599.8718598;1684235600.6259725;1684235601.1271882;1684235604.1264937;1684235604.841741;[];[];[]
pilot6blocks;43;0;0;1;False;1000;True;;8;104.01472989984822;eye;L;-2.2828766107559204;6.407840389385819;0;109.61;6.8;0.7995692000258714;0.7996522999601439;1684235605.6376355;1684235605.6552787;1684235606.4095335;1684235606.910941;1684235607.8927224;1684235608.6925926;[];[];[]
pilot6blocks;44;0;0;1;False;1000;True;;8;-127.68551966589148;eye;L;-4.1491504311561584;-6.313016599416732;0;-123.31;7.55;0.6668535999488086;0.6669213999994099;1684235609.5093374;1684235609.5216987;1684235610.276658;1684235610.7764087;1684235611.7586875;1684235612.4255128;[];[];[]
pilot6blocks;45;0;0;1;False;3000;True;;8;-128.37618851938532;eye;L;-4.342682480812073;-5.332946008443832;0;-129.16;6.88;2.114737099967897;2.114838899928145;1684235613.2526736;1684235613.2716916;1684235614.025166;1684235614.5263424;1684235617.526596;1684235619.6416135;[];[];[]
pilot6blocks;46;0;0;1;False;1000;False;;8;80.80762596648783;eye;L;nan;nan;0;nan;nan;0.002700399956665933;0.0027904000598937273;1684235620.4749393;1684235620.4879448;1684235621.2265458;1684235621.2268171;1684235621.2278352;1684235621.2299526;[];[];[]
pilot6blocks;46;0;0;1;False;1000;True;;8;146.7540834304503;eye;L;-6.813938319683075;4.385145235061645;0;147.24;8.1;0.6987799999769777;0.6989230000181124;1684235621.7955036;1684235621.804237;1684235622.5587003;1684235623.0603616;1684235624.0409937;1684235624.7407367;[];[];[]
pilot6blocks;47;0;0;1;False;3000;True;;8;-70.74964920951727;eye;L;2.2852389812469482;-5.730419571697712;0;-68.26;6.17;1.1155307000735775;1.1156973999459296;1684235625.5319562;1684235625.537278;1684235626.2927892;1684235626.7930229;1684235629.7912302;1684235630.9065132;[];[];[]
pilot6blocks;48;0;0;1;False;1000;True;;8;119.27846286999528;eye;L;-3.7931940853595734;6.630997309461235;0;119.77;7.64;1.5166933999862522;1.5167431000154465;1684235631.7050078;1684235631.720755;1684235632.4732306;1684235632.9751801;1684235633.9569883;1684235635.4735584;[];[];[]
pilot6blocks;49;0;0;1;False;3000;True;;8;96.85560075590374;eye;L;-1.2671360075473785;7.15547434464097;0;100.04;7.27;2.917738600051962;2.917774699977599;1684235636.2928746;1684235636.3034887;1684235637.0567627;1684235637.5586362;1684235640.5564435;1684235643.4744186;[];[];[]
pilot6blocks;0;1;0;1;False;3000;True;;8;-11.916163281099193;eye;L;8.806784689426422;-3.3040256649255753;0;-20.56;9.41;1.881832499988377;1.8818946999963373;1684235651.625591;1684235651.6346111;1684235652.3897326;1684235652.891957;1684235655.8894603;1684235657.7715766;[];[];[]
pilot6blocks;1;1;0;1;False;1000;True;;8;-160.4101750687732;eye;L;-6.9217976331710815;-3.3892340943217274;0;-153.91;7.71;1.266164799919352;1.2662313000764698;1684235658.447347;1684235658.453273;1684235659.2064447;1684235659.7076306;1684235660.6901312;1684235661.9555247;[];[];[]
pilot6blocks;2;1;0;1;False;1000;True;;8;110.7592016398412;eye;L;-2.9184307157993317;7.495114552974701;0;111.27;8.04;1.3670766000868753;1.3671431000111625;1684235662.6403148;1684235662.6523433;1684235663.4050813;1684235663.9077997;1684235664.8889081;1684235666.2553415;[];[];[]
pilot6blocks;3;1;0;1;False;3000;True;;8;170.9862889093055;eye;L;-7.083373129367828;1.0841873332858085;0;171.3;7.17;1.264736199984327;1.2648148000007495;1684235667.042176;1684235667.0513008;1684235667.8069253;1684235668.3080332;1684235671.3072398;1684235672.571844;[];[];[]
pilot6blocks;4;1;0;1;False;1000;True;;8;134.85370764078806;eye;L;-5.427280068397522;4.843408822640776;0;138.25;7.27;1.500001100008376;1.5000700999516994;1684235673.3580072;1684235673.3680255;1684235674.12127;1684235674.623057;1684235675.6043112;1684235677.1050286;[];[];[]
pilot6blocks;5;1;0;1;False;3000;True;;8;37.433963943342555;eye;L;5.996780097484589;4.643028326332569;0;37.75;7.58;0.7319339000387117;0.7320331999799237;1684235677.8807943;1684235677.8841672;1684235678.6394694;1684235679.1404836;1684235682.1397474;1684235682.871973;[];[];[]
pilot6blocks;6;1;0;1;False;1000;True;;8;-31.883423468885997;eye;L;6.911052584648132;-4.084503816068172;0;-30.58;8.03;1.2329812999814749;1.2330300000030547;1684235683.8840516;1684235683.9010513;1684235684.655285;1684235685.1560156;1684235686.1371105;1684235687.370667;[];[];[]
pilot6blocks;7;1;0;1;False;3000;True;;8;68.5228100227035;eye;L;3.342767834663391;6.32295830771327;0;62.14;7.15;1.248165600001812;1.248215000028722;1684235688.211694;1684235688.2179663;1684235688.9701679;1684235689.4719694;1684235692.4717133;1684235693.7200544;[];[];[]
pilot6blocks;8;1;0;1;False;1000;True;;8;-24.79295998734883;eye;L;7.169290482997894;-2.701697757840156;0;-20.65;7.66;0.9326178999617696;0.9326635000761598;1684235694.5317202;1684235694.5507224;1684235695.303626;1684235695.8051026;1684235696.7865758;1684235697.7198625;[];[];[]
pilot6blocks;9;1;0;1;False;3000;True;;8;170.07018141867442;eye;L;-6.097679138183594;1.0597180299460887;0;170.14;6.19;0.7482987999683246;0.7483499000081792;1684235698.5492332;1684235698.5672343;1684235699.3206367;1684235699.8218472;1684235702.8215952;1684235703.569251;[];[];[]
pilot6blocks;10;1;0;1;False;1000;True;;8;-99.04032403524543;eye;L;-1.3639105260372162;-6.732055900990963;0;-101.45;6.87;0.8320108999032527;0.8320627000648528;1684235704.356148;1684235704.36715;1684235705.1199014;1684235705.6232274;1684235706.603046;1684235707.4354572;[];[];[]
pilot6blocks;11;1;0;1;False;3000;True;;8;-166.84113771341083;eye;L;-7.126968264579773;-2.7071588426828384;0;-159.2;7.62;1.1325726000359282;1.1326213999418542;1684235708.1571994;1684235708.167189;1684235708.9202294;1684235709.4215865;1684235712.4202595;1684235713.5521615;[];[];[]
pilot6blocks;12;1;0;1;False;3000;True;;8;-53.276306047820576;eye;L;4.506511628627777;-6.187318360805511;0;-53.93;7.65;0.9154588999226689;0.9155902999918908;1684235714.4030843;1684235714.4161463;1684235715.1698685;1684235715.6717174;1684235718.6705747;1684235719.5861695;[];[];[]
pilot6blocks;13;1;0;1;False;1000;True;;8;15.794721080942624;eye;L;8.197566032409668;1.5544091776013373;0;10.74;8.34;0.76668460003566;0.7667580000124872;1684235720.439264;1684235720.4492722;1684235721.2033565;1684235721.704601;1684235722.6851056;1684235723.452486;[];[];[]
pilot6blocks;14;1;0;1;False;3000;True;;8;-178.76426820834584;eye;L;-6.258624970912933;-0.9228540033102035;0;-171.61;6.33;1.1991077000275254;1.1991859000409022;1684235724.1820738;1684235724.1993833;1684235724.9544384;1684235725.4540265;1684235728.4532647;1684235729.6526737;[];[];[]
pilot6blocks;15;1;0;1;False;1000;True;;8;72.78759901526783;eye;L;2.2615110874176025;7.4991891327314075;0;73.22;7.83;1.451469200081192;1.451533899991773;1684235730.7361214;1684235730.7481418;1684235731.503648;1684235732.0054963;1684235732.985179;1684235734.4358954;[];[];[]
pilot6blocks;16;1;0;1;False;1000;False;;8;126.67703113777094;eye;L;nan;nan;0;nan;nan;0.00207719998434186;0.0021327000577002764;1684235735.1473522;1684235735.1646855;1684235735.919398;1684235736.4037046;1684235736.4047017;1684235736.4067154;[];[];[]
pilot6blocks;16;1;0;1;False;1000;True;;8;99.17558572319926;eye;L;-2.278517097234726;7.41472420413047;0;107.08;7.76;0.9167711000191048;0.9169498999835923;1684235736.970136;1684235736.983139;1684235737.7361104;1684235738.2373369;1684235739.2189138;1684235740.1351736;[];[];[]
pilot6blocks;17;1;0;1;False;3000;True;;8;133.17054260948757;eye;L;-6.048390984535217;5.388156763091683;0;138.3;8.1;0.765611800015904;0.7656627999385819;1684235740.9883852;1684235740.9971416;1684235741.7519686;1684235742.2527509;1684235745.251591;1684235746.017546;[];[];[]
pilot6blocks;18;1;0;1;False;1000;True;;8;-71.68576421976235;eye;L;3.593291223049164;-7.429734702408314;0;-64.19;8.25;1.1512322999769822;1.1512845000252128;1684235746.7108557;1684235746.731839;1684235747.4852948;1684235747.9836562;1684235748.9653897;1684235750.117239;[];[];[]
pilot6blocks;19;1;0;1;False;3000;True;;8;135.24805774091843;eye;L;-5.66125950217247;4.350977999344468;0;142.46;7.14;0.7841384999919683;0.7841944999527186;1684235750.8355336;1684235750.8478055;1684235751.6010025;1684235752.1022513;1684235755.099943;1684235755.8845017;[];[];[]
pilot6blocks;20;1;0;1;False;3000;True;;8;-125.63963166310653;eye;L;-5.0895097851753235;-7.001727850735187;0;-126.01;8.66;1.699940099962987;1.6999959000386298;1684235756.6391025;1684235756.6473072;1684235757.4012215;1684235757.9023316;1684235760.9173238;1684235762.617323;[];[];[]
pilot6blocks;21;1;0;1;False;1000;True;;8;-33.973052131875676;eye;L;6.561893999576569;-4.936534532904624;0;-36.95;8.21;1.014875499997288;1.0149651999818161;1684235763.3592618;1684235763.3628275;1684235764.1187432;1684235764.6202269;1684235765.6014338;1684235766.6159616;[];[];[]
pilot6blocks;22;1;0;1;False;1000;True;;8;51.231007504067954;eye;L;4.505195677280426;7.439300425350665;0;58.8;8.7;0.8989539999747649;0.8990452000871301;1684235767.3137465;1684235767.3299267;1684235768.0850022;1684235768.586286;1684235769.5672278;1684235770.466897;[];[];[]
pilot6blocks;23;1;0;1;False;3000;True;;8;-118.42210409859305;eye;L;-3.5929956436157227;-6.600849933922291;0;-118.56;7.52;3.216153600020334;3.216199900023639;1684235771.1204696;1684235771.129975;1684235771.8858159;1684235772.386154;1684235775.383548;1684235778.5999093;[];[];[]
pilot6blocks;24;1;0;1;False;1000;True;;8;22.610965870177818;eye;L;7.21463418006897;2.644128506630659;0;20.13;7.68;1.565620300010778;1.5656994000310078;1684235779.4267251;1684235779.4459743;1684235780.200995;1684235780.7020755;1684235781.6836884;1684235783.249051;[];[];[]
pilot6blocks;25;1;0;1;False;3000;False;;8;-82.76640270604737;eye;L;nan;nan;0;nan;nan;0.0023302999325096607;0.002402900019660592;1684235784.0895207;1684235784.0957773;1684235784.8501158;1684235785.352083;1684235788.3325684;1684235788.3347492;[];[];[]
pilot6blocks;25;1;0;1;False;3000;True;;8;53.92793621979886;eye;L;5.751239657402039;5.93126618899405;0;45.88;8.26;3.615773499943316;3.61582420009654;1684235788.9061148;1684235788.9121335;1684235789.700624;1684235790.2000728;1684235793.2164083;1684235796.8321576;[];[];[]
pilot6blocks;26;1;0;1;False;1000;True;;8;-117.61765970712416;eye;L;-2.471880406141281;-6.400044129788875;0;-111.12;6.86;0.8177050000522286;0.8177527999505401;1684235798.0700486;1684235798.0780642;1684235798.8325002;1684235799.3331523;1684235800.313899;1684235801.1307259;[];[];[]
pilot6blocks;27;1;0;1;False;3000;True;;8;73.58009056343445;eye;L;3.1991117000579834;8.154133597947656;0;68.58;8.76;1.4488789000315592;1.448929600068368;1684235801.8956316;1684235801.9126348;1684235802.6649785;1684235803.1670952;1684235806.1639662;1684235807.6130843;[];[];[]
pilot6blocks;28;1;0;1;False;3000;True;;8;-104.44830855397501;eye;L;-2.3189735412597656;-6.635906392335891;0;-109.26;7.03;1.1847690000431612;1.1848354999674484;1684235808.370598;1684235808.3777962;1684235809.1313553;1684235809.6333792;1684235812.631296;1684235813.8161108;[];[];[]
pilot6blocks;29;1;0;1;False;1000;True;;8;126.02337421486175;eye;L;-4.18161603808403;5.615101428329944;0;126.68;7.0;0.7820726999780163;0.7821867000311613;1684235814.5228612;1684235814.5269172;1684235815.2829692;1684235815.7836342;1684235816.766091;1684235817.5479975;[];[];[]
pilot6blocks;30;1;0;1;False;3000;True;;8;94.34146478285952;eye;L;-1.0771486461162567;7.445608186349272;0;98.23;7.52;0.8822386000538245;0.8823397000087425;1684235818.210766;1684235818.2279372;1684235818.9829226;1684235819.483644;1684235822.481786;1684235823.3639262;[];[];[]
pilot6blocks;31;1;0;1;False;1000;True;;8;-24.432599791492155;eye;L;7.438736617565155;-2.85930905342102;0;-21.03;7.97;0.9157584001077339;0.9158425000496209;1684235824.1638758;1684235824.1769447;1684235824.9322004;1684235825.4318511;1684235826.415992;1684235827.3318503;[];[];[]
pilot6blocks;32;1;0;1;False;1000;True;;8;66.15245658197097;eye;L;3.4122323989868164;6.747241470403969;0;63.17;7.56;0.7305045000975952;0.730778899975121;1684235828.034425;1684235828.0433438;1684235828.7975185;1684235829.2981355;1684235830.282793;1684235831.0135486;[];[];[]
pilot6blocks;33;1;0;1;False;3000;True;;8;-163.124164072873;eye;L;-7.4039148688316345;-3.151877975463867;0;-156.94;8.05;0.917090000002645;0.9171384000219405;1684235831.8498018;1684235831.8603177;1684235832.6143627;1684235833.1157575;1684235836.1127143;1684235837.0302296;[];[];[]
pilot6blocks;34;1;0;1;False;3000;True;;8;-64.3328283927985;eye;L;3.0300164818763733;-6.257560493052005;0;-64.16;6.95;1.2327481000684202;1.2328360000392422;1684235837.8264124;1684235837.8421843;1684235838.5964556;1684235839.0989022;1684235842.097449;1684235843.3303595;[];[];[]
pilot6blocks;35;1;0;1;False;1000;True;;8;40.6007222244019;eye;L;6.1878886222839355;4.6301061540842054;0;36.81;7.73;1.7998765000374988;1.7999335000058636;1684235844.095061;1684235844.1098328;1684235844.8627858;1684235845.3629096;1684235846.346367;1684235848.1459506;[];[];[]
pilot6blocks;36;1;0;1;False;3000;True;;8;-66.58956859360829;eye;L;3.240497350692749;-6.077944757044315;0;-61.94;6.89;0.9324330999515951;0.9327529000584036;1684235849.0991397;1684235849.1091526;1684235849.8616416;1684235850.363157;1684235853.364107;1684235854.296097;[];[];[]
pilot6blocks;37;1;0;1;False;1000;False;;8;-83.21756925460818;eye;L;nan;nan;0;nan;nan;0.0016005000798031688;0.0016651999903842807;1684235855.2020028;1684235855.2085845;1684235855.9621153;1684235856.4649851;1684235857.4302454;1684235857.4324;[];[];[]
pilot6blocks;37;1;0;1;False;1000;True;;8;141.741301994442;eye;L;-5.930090695619583;4.911251172423363;0;140.37;7.7;0.7655000999802724;0.7655577000696212;1684235858.0005317;1684235858.008713;1684235858.7621212;1684235859.2626595;1684235860.2453096;1684235861.0110383;[];[];[]
pilot6blocks;38;1;0;1;False;3000;False;;8;-72.14170189442457;eye;L;nan;nan;0;nan;nan;0.0021513000829145312;0.002244099974632263;1684235861.8232965;1684235861.8422947;1684235862.5797386;1684235862.580734;1684235862.5817416;1684235862.5837524;[];[];[]
pilot6blocks;38;1;0;1;False;3000;True;;8;92.92022713053356;eye;L;-1.1730205714702606;6.407467082887887;0;100.37;6.51;0.8482626000186428;0.8483276999322698;1684235863.148952;1684235863.1582832;1684235863.912313;1684235864.4130547;1684235867.4119623;1684235868.260265;[];[];[]
pilot6blocks;39;1;0;1;False;1000;True;;8;129.2039244734999;eye;L;-4.579142063856125;4.6298773482441895;0;134.68;6.51;1.1156219000695273;1.1157051000045612;1684235869.0334785;1684235869.0412788;1684235869.7953029;1684235870.2960315;1684235871.2792299;1684235872.3950956;[];[];[]
pilot6blocks;40;1;0;1;False;3000;True;;8;-107.09820237525987;eye;L;-1.3771866858005524;-5.8830916866660115;0;-103.18;6.04;2.431619199924171;2.4317046999931335;1684235873.0971324;1684235873.1074648;1684235873.8618186;1684235874.3636544;1684235877.3628612;1684235879.7947717;[];[];[]
pilot6blocks;41;1;0;1;False;1000;True;;8;-99.56442510740487;eye;L;-0.1926589012145996;-7.591473327577114;0;-91.45;7.59;2.1155356999952346;2.1156248999759555;1684235880.618595;1684235880.6244974;1684235881.3779209;1684235881.8785477;1684235882.8618064;1684235884.9774604;[];[];[]
pilot6blocks;42;1;0;1;False;1000;True;;8;68.86632106767459;eye;L;3.939582347869873;7.675376287288963;0;62.83;8.63;1.4661099000368267;1.4661608999595046;1684235885.738228;1684235885.758011;1684235886.510775;1684235887.0116372;1684235887.9930284;1684235889.4596102;[];[];[]
pilot6blocks;43;1;0;1;False;3000;True;;8;57.844229826862104;eye;L;4.439540803432465;5.7739555556327105;0;52.44;7.28;1.0670754000311717;1.0671318999957293;1684235890.1772451;1684235890.1898353;1684235890.9432168;1684235891.445171;1684235894.4436996;1684235895.5112627;[];[];[]
pilot6blocks;44;1;0;1;False;1000;True;;8;-150.90516834086046;eye;L;-5.952636271715164;-3.8793778046965595;0;-146.91;7.11;0.783985499991104;0.7840379000408575;1684235896.415056;1684235896.4230568;1684235897.177696;1684235897.6793067;1684235898.659766;1684235899.4429371;[];[];[]
pilot6blocks;45;1;0;1;False;3000;True;;8;131.34322399526204;eye;L;-5.0288344621658325;4.965533939749002;0;135.36;7.07;0.7343319000210613;0.7343864999711514;1684235900.2887785;1684235900.3065329;1684235901.0608954;1684235901.5603142;1684235904.5597818;1684235905.294169;[];[];[]
pilot6blocks;46;1;0;1;False;1000;True;;8;77.17017007230214;eye;L;1.6236234903335571;7.062355883046984;0;77.05;7.25;0.7168478999519721;0.716903799911961;1684235906.2234364;1684235906.2394483;1684235906.9922154;1684235907.4959128;1684235908.475432;1684235909.1924603;[];[];[]
pilot6blocks;47;1;0;1;False;3000;True;;8;-132.194376948185;eye;L;-5.7811373472213745;-5.4837290570139885;0;-136.51;7.97;1.1158170000417158;1.1159950000001118;1684235909.864559;1684235909.8726382;1684235910.6268067;1684235911.128425;1684235914.1259344;1684235915.2421975;[];[];[]
pilot6blocks;48;1;0;1;False;3000;True;;8;-156.1921812066155;eye;L;-5.774166315793991;-4.212860740721226;0;-143.89;7.15;1.2158388000680134;1.2159145999467;1684235915.9827628;1684235915.9897661;1684235916.7435791;1684235917.244491;1684235920.2427578;1684235921.4587598;[];[];[]
pilot6blocks;49;1;0;1;False;1000;True;;8;17.929076249269958;eye;L;6.509886741638184;1.6085324741899967;0;13.88;6.71;1.132128700031899;1.1322108999593183;1684235922.192599;1684235922.205217;1684235922.9605556;1684235923.4603558;1684235924.4426198;1684235925.5742826;[];[];[]
pilot6blocks;0;2;0;1;False;3000;False;;8;19.443753583257564;eye;L;nan;nan;0;nan;nan;0.0020960000110790133;0.0022012999979779124;1684235943.5172617;1684235943.5362794;1684235944.2771213;1684235944.2771213;1684235944.2781143;1684235944.2801166;[];[];[]
pilot6blocks;0;2;0;1;False;3000;True;;8;11.493476804771529;eye;L;7.267713904380798;0.7621364951133728;0;5.99;7.31;0.8462164999218658;0.8463234000373632;1684235944.8514237;1684235944.871494;1684235945.6254492;1684235946.1270437;1684235949.1266418;1684235949.9731624;[];[];[]
pilot6blocks;1;2;0;1;False;1000;True;;8;120.3796964534778;eye;L;-3.4242900013923645;5.985337799414992;0;119.77;6.9;1.065574700012803;1.065637999912724;1684235950.7781518;1684235950.7873816;1684235951.5413814;1684235952.0426068;1684235953.0243192;1684235954.0900576;[];[];[]
pilot6blocks;2;2;0;1;False;3000;True;;8;71.10979866978387;eye;L;1.6126055121421814;7.352437644638121;0;77.63;7.53;1.3330499000148848;1.333102000062354;1684235954.896168;1684235954.9039779;1684235955.6580367;1684235956.1578372;1684235959.157314;1684235960.4900625;[];[];[]
pilot6blocks;3;2;0;1;False;1000;False;;8;-32.72344526381519;eye;L;nan;nan;0;nan;nan;0.0023594999220222235;0.002405500039458275;1684235961.1868584;1684235961.2028956;1684235961.9396358;1684235961.9402776;1684235961.9402776;1684235961.9424865;[];[];[]
pilot6blocks;3;2;0;1;False;1000;True;;8;36.45418031510189;eye;L;6.417684078216553;4.337300862371921;0;34.05;7.75;0.9002995999762788;0.900353999924846;1684235963.2161415;1684235963.2362118;1684235963.9901414;1684235964.4918933;1684235965.4718835;1684235966.3718154;[];[];[]
pilot6blocks;4;2;0;1;False;1000;True;;8;172.86322993303068;eye;L;-6.531253963708878;0.21624484062194824;0;178.1;6.53;1.0827390999766067;1.0827993999700993;1684235967.2429588;1684235967.2544417;1684235968.0076728;1684235968.508359;1684235969.489914;1684235970.5719106;[];[];[]
pilot6blocks;5;2;0;1;False;3000;True;;8;-79.74010569112853;eye;L;2.303828775882721;-7.165120433270931;0;-72.18;7.53;1.065447400091216;1.0655388999730349;1684235971.3126569;1684235971.3192565;1684235972.0733576;1684235972.5739803;1684235975.5729613;1684235976.6390686;[];[];[]
pilot6blocks;6;2;0;1;False;3000;True;;8;61.716241531371;eye;L;3.91288959980011;7.624799087271094;0;62.83;8.57;1.248582800035365;1.2486652999650687;1684235977.3673332;1684235977.3857913;1684235978.140644;1684235978.640212;1684235981.6399004;1684235982.8889678;[];[];[]
pilot6blocks;7;2;0;1;False;1000;True;;8;39.381710285619775;eye;L;5.73421835899353;4.326177305728197;0;37.03;7.18;1.1823141999775544;1.1825325000099838;1684235983.65746;1684235983.6684625;1684235984.4236643;1684235984.9240427;1684235985.9052086;1684235987.0881598;[];[];[]
pilot6blocks;8;2;0;1;False;3000;True;;8;39.111958243827544;eye;L;6.9399174451828;4.492683822289109;0;32.92;8.27;1.0322951000416651;1.0323877999326214;1684235987.854721;1684235987.8747904;1684235988.6211705;1684235989.1214852;1684235992.1405396;1684235993.1725028;[];[];[]
pilot6blocks;9;2;0;1;False;1000;True;;8;163.79010096453524;eye;L;-6.916845262050629;1.7939323335886;0;165.46;7.15;0.766314800013788;0.766403799992986;1684235994.0014887;1684235994.0184891;1684235994.7730052;1684235995.2730653;1684235996.254536;1684235997.0209372;[];[];[]
pilot6blocks;10;2;0;1;False;3000;True;;8;-79.59506090618541;eye;L;1.600227415561676;-7.088006561994552;0;-77.28;7.27;0.6979781000409275;0.6982153999852017;1684235997.6828237;1684235997.7008886;1684235998.4550443;1684235998.956398;1684236001.957008;1684236002.6546106;[];[];[]
pilot6blocks;11;2;0;1;False;1000;True;;8;-102.0660972319849;eye;L;-1.2505863904953003;-7.073452493548393;0;-100.03;7.18;0.7338013999396935;0.7338661999674514;1684236003.4323695;1684236003.4507508;1684236004.2040062;1684236004.7069216;1684236005.687574;1684236006.421028;[];[];[]
pilot6blocks;12;2;0;1;False;3000;True;;8;-90.47534831248181;eye;L;0.8606197237968445;-7.666814741492271;0;-83.6;7.71;1.2149831999558955;1.2150296999607235;1684236007.1991649;1684236007.2173486;1684236007.971382;1684236008.4727573;1684236011.4711998;1684236012.686619;[];[];[]
pilot6blocks;13;2;0;1;False;1000;True;;8;-132.9051408306338;eye;L;-4.6444679498672485;-5.039288525283336;0;-132.67;6.85;0.649463800014928;0.6495293999323621;1684236013.4574676;1684236013.4665043;1684236014.221471;1684236014.721189;1684236015.7047172;1684236016.35372;[];[];[]
pilot6blocks;14;2;0;1;False;3000;True;;8;-14.755287011047912;eye;L;7.730491638183594;-2.9781336620450016;0;-21.07;8.28;0.8830845999764279;0.883135600015521;1684236017.1496563;1684236017.167657;1684236017.9209907;1684236018.4231849;1684236021.4201577;1684236022.303348;[];[];[]
pilot6blocks;15;2;0;1;False;1000;True;;8;-130.58554517600012;eye;L;-5.758137077093124;-4.156121304631233;0;-144.18;7.1;2.16528620000463;2.165357999969274;1684236023.0188122;1684236023.033593;1684236023.787116;1684236024.2887297;1684236025.2702715;1684236027.435694;[];[];[]
pilot6blocks;16;2;0;1;False;3000;True;;8;-47.05093828715205;eye;L;5.626122355461121;-5.299338653683662;0;-43.29;7.73;0.5996665999991819;0.5997617000248283;1684236028.289645;1684236028.2997596;1684236029.0519867;1684236029.555321;1684236032.5548875;1684236033.1551502;[];[];[]
pilot6blocks;17;2;0;1;False;1000;True;;8;-38.83926119974044;eye;L;5.850887298583984;-3.3653689518570897;0;-29.91;6.75;1.415055299992673;1.4151781999971718;1684236033.9095416;1684236033.9155772;1684236034.670814;1684236035.172616;1684236036.154384;1684236037.5690336;[];[];[]
pilot6blocks;18;2;0;1;False;1000;True;;8;22.90899138687474;eye;L;6.843885838985443;2.2497479192912575;0;18.2;7.2;0.799820699961856;0.7998765000374988;1684236038.4238021;1684236038.4324422;1684236039.1858335;1684236039.6874712;1684236040.6688392;1684236041.4692156;[];[];[]
pilot6blocks;19;2;0;1;False;3000;True;;8;149.71576960407185;eye;L;-6.147557884454727;3.900748459249735;0;147.6;7.28;0.7800647000549361;0.7801584999542683;1684236042.2180939;1684236042.23291;1684236042.9867718;1684236043.4881768;1684236046.4876475;1684236047.267859;[];[];[]
pilot6blocks;20;2;0;1;False;3000;True;;8;42.89564361520172;eye;L;5.153451204299927;5.0151047565042965;0;44.22;7.19;0.7489447999978438;0.7490111000370234;1684236048.0196857;1684236048.0316865;1684236048.7836838;1684236049.288231;1684236052.28645;1684236053.0348744;[];[];[]
pilot6blocks;21;2;0;1;False;1000;True;;8;-72.97257948417099;eye;L;3.290840983390808;-6.601195979118347;0;-63.5;7.38;0.951074100099504;0.9511187999742106;1684236053.985541;1684236053.998543;1684236054.7518003;1684236055.2525187;1684236056.2341862;1684236057.1854396;[];[];[]
pilot6blocks;22;2;0;1;False;3000;True;;8;-107.55996760083805;eye;L;-1.6768340170383453;-6.601953622698783;0;-104.25;6.81;0.8157930000452325;0.8158538999268785;1684236057.9192162;1684236057.9311635;1684236058.6843948;1684236059.187328;1684236062.1844852;1684236063.000412;[];[];[]
pilot6blocks;23;2;0;1;False;1000;True;;8;55.70217684397433;eye;L;4.313676059246063;8.179285615682602;0;62.19;9.25;0.7180621000006795;0.7181057999841869;1684236063.698102;1684236063.7151926;1684236064.4687753;1684236064.9690294;1684236065.9500275;1684236066.6679535;[];[];[]
pilot6blocks;24;2;0;1;False;3000;True;;8;-50.18695577337969;eye;L;5.445852875709534;-5.267515732347965;0;-44.05;7.58;0.8159499000757933;0.8160038000205532;1684236067.44456;1684236067.4646742;1684236068.2176743;1684236068.7188108;1684236071.7175858;1684236072.5341566;[];[];[]
pilot6blocks;25;2;0;1;False;1000;True;;8;-176.60521134850725;eye;L;-5.847160279750824;-1.1572948962450027;0;-168.8;5.96;0.6845562000526115;0.6846133000217378;1684236073.362757;1684236073.380497;1684236074.1342158;1684236074.6361344;1684236075.6166987;1684236076.3008888;[];[];[]
pilot6blocks;26;2;0;1;False;3000;True;;8;-142.67178967687155;eye;L;-5.912814021110535;-4.714648966491222;0;-141.43;7.56;1.4996617999859154;1.4998706999467686;1684236077.100197;1684236077.113215;1684236077.866826;1684236078.3694587;1684236081.3676248;1684236082.8669794;[];[];[]
pilot6blocks;27;2;0;1;False;1000;False;;8;73.53261030108051;eye;L;nan;nan;0;nan;nan;0.0022953000152483582;0.0024004000006243587;1684236083.7050736;1684236083.7130914;1684236084.4678226;1684236084.9688857;1684236085.9361937;1684236085.938335;[];[];[]
pilot6blocks;27;2;0;1;False;1000;True;;8;-31.231871741854185;eye;L;6.3410621881484985;-3.5297536566853522;0;-29.1;7.26;0.6171180999372154;0.617198400082998;1684236086.5036647;1684236086.5135853;1684236087.2672808;1684236087.7677312;1684236088.7499294;1684236089.3673964;[];[];[]
pilot6blocks;28;2;0;1;False;3000;True;;8;-113.50302047562543;eye;L;-3.8690521121025085;-6.76869761198759;0;-119.75;7.8;0.7133452999405563;0.7133848000084981;1684236090.2272277;1684236090.2465503;1684236091.0003903;1684236091.5020509;1684236094.5019329;1684236095.215527;[];[];[]
pilot6blocks;29;2;0;1;False;1000;True;;8;-72.05423122738728;eye;L;3.394776225090027;-7.139413498342036;0;-64.57;7.91;0.933598899981007;0.9336806000210345;1684236095.9142523;1684236095.928631;1684236096.684803;1684236097.1857355;1684236098.1663113;1684236099.1001966;[];[];[]
pilot6blocks;30;2;0;1;False;3000;True;;8;172.45526383588202;eye;L;-6.104782670736313;1.5752387031912802;0;165.53;6.3;0.6809907000279054;0.6811091999989003;1684236099.9253864;1684236099.9458735;1684236100.701441;1684236101.202234;1684236104.202556;1684236104.88336;[];[];[]
pilot6blocks;31;2;0;1;False;1000;True;;8;-145.76183818514974;eye;L;-5.608598232269287;-3.998527657985687;0;-144.51;6.89;1.3334016998996958;1.3334382999455556;1684236105.566186;1684236105.5782418;1684236106.3334873;1684236106.8345554;1684236107.8136053;1684236109.1469197;[];[];[]
pilot6blocks;32;2;0;1;False;3000;True;;8;-43.4473281498679;eye;L;5.401051640510559;-4.222135256230831;0;-38.02;6.86;0.7163011999800801;0.7163609999697655;1684236109.8285005;1684236109.8466794;1684236110.5982788;1684236111.1001084;1684236114.0984128;1684236114.8147829;[];[];[]
pilot6blocks;33;2;0;1;False;1000;True;;8;-171.25512305294373;eye;L;-6.026537925004959;-1.6778017088770865;0;-164.44;6.26;1.4997124000219628;1.4997804999584332;1684236115.6000671;1684236115.6120691;1684236116.3647761;1684236116.8670435;1684236117.8485618;1684236119.348175;[];[];[]
pilot6blocks;34;2;0;1;False;1000;True;;8;-28.025200499659125;eye;L;7.557072579860687;-4.638362704217434;0;-31.54;8.87;0.950262299971655;0.9503259001066908;1684236120.1407819;1684236120.1613216;1684236120.9150622;1684236121.416456;1684236122.3977966;1684236123.3484375;[];[];[]
pilot6blocks;35;2;0;1;False;3000;True;;8;-179.60069785085824;eye;L;-6.825104087591171;-0.2565603666007519;0;-177.85;6.83;0.9170025000348687;0.9170557999750599;1684236124.0999415;1684236124.1111994;1684236124.8657963;1684236125.365633;1684236128.364609;1684236129.2816465;[];[];[]
pilot6blocks;36;2;0;1;False;1000;True;;8;85.18596872193312;eye;L;1.0724890232086182;7.203860476613044;0;81.53;7.28;2.032781299902126;2.032862600055523;1684236130.011844;1684236130.0285573;1684236130.7814445;1684236131.281914;1684236132.2643523;1684236134.2973475;[];[];[]
pilot6blocks;37;2;0;1;False;3000;True;;8;-24.42184637315507;eye;L;7.361585855484009;-4.954968845844268;0;-33.94;8.87;1.0342411000747234;1.0343090000096709;1684236134.9968846;1684236135.0110824;1684236135.765443;1684236136.2659855;1684236139.264972;1684236140.2998302;[];[];[]
pilot6blocks;38;2;0;1;False;3000;True;;8;35.063872586144164;eye;L;7.004095554351807;3.968741928040981;0;29.54;8.05;0.7133964999811724;0.7135416999226436;1684236140.987677;1684236140.9941022;1684236141.7469041;1684236142.2480867;1684236145.2652493;1684236145.9791014;[];[];[]
pilot6blocks;39;2;0;1;False;1000;True;;8;161.30210500720128;eye;L;-6.443526893854141;2.2115830421447753;0;161.06;6.81;0.8655146999517456;0.8655839000130072;1684236146.7924347;1684236146.8100991;1684236147.5643003;1684236148.0653052;1684236149.0474052;1684236149.9128916;[];[];[]
pilot6blocks;40;2;0;1;False;1000;True;;8;0.7017072986530299;eye;L;8.04232794046402;-0.2441749110817909;0;-1.74;8.05;0.6498304000124335;0.6499251999193802;1684236150.735039;1684236150.7445083;1684236151.4978356;1684236151.9989111;1684236152.9804564;1684236153.6301448;[];[];[]
pilot6blocks;41;2;0;1;False;3000;True;;8;120.02374399981615;eye;L;-4.043120086193085;5.82676747329533;0;124.76;7.09;0.5993610000004992;0.599424900021404;1684236154.4360034;1684236154.4444797;1684236155.1980212;1684236155.6992435;1684236158.6966996;1684236159.2961435;[];[];[]
pilot6blocks;42;2;0;1;False;3000;True;;8;-83.3011221607712;eye;L;1.5505032539367676;-6.9763077110052105;0;-77.47;7.15;0.7001120999921113;0.7001930000260472;1684236160.0519419;1684236160.0586808;1684236160.8129115;1684236161.3148966;1684236164.312549;1684236165.0123694;[];[];[]
pilot6blocks;43;2;0;1;False;1000;True;;8;44.87056764042029;eye;L;6.040006041526794;6.287122932448983;0;46.15;8.72;0.9004377999808639;0.9004766999278218;1684236165.8573997;1684236165.8761196;1684236166.628749;1684236167.1308694;1684236168.1111634;1684236169.0115194;[];[];[]
pilot6blocks;44;2;0;1;False;1000;True;;8;26.902855881422767;eye;L;7.501060843467712;3.527168402820825;0;25.18;8.29;0.6508171999594197;0.6508695000084117;1684236169.8700135;1684236169.8764064;1684236170.629265;1684236171.130153;1684236172.1123712;1684236172.762447;[];[];[]
pilot6blocks;45;2;0;1;False;3000;True;;8;-5.039069377547235;eye;L;8.488701581954956;0.09314887449145316;0;0.63;8.49;0.633238899987191;0.6333167999982834;1684236173.4815347;1684236173.4918823;1684236174.2468064;1684236174.7469258;1684236177.7454634;1684236178.3785899;[];[];[]
pilot6blocks;46;2;0;1;False;3000;True;;8;141.23618581212335;eye;L;-6.152818292379379;4.205701576173305;0;145.65;7.45;0.6492580999620259;0.6493104000110179;1684236179.036042;1684236179.0422902;1684236179.7955139;1684236180.297017;1684236183.2958696;1684236183.944871;[];[];[]
pilot6blocks;47;2;0;1;False;1000;True;;8;168.33853996230522;eye;L;-6.009850710630417;2.223810602724552;0;159.69;6.41;0.7846872999798506;0.7847464999649674;1684236184.7873824;1684236184.7904518;1684236185.545526;1684236186.0462697;1684236187.0271895;1684236187.8122272;[];[];[]
pilot6blocks;48;2;0;1;False;1000;True;;8;-10.703587837800423;eye;L;8.605544924736023;-1.795634825527668;0;-11.79;8.79;0.6160536999814212;0.6161162999924272;1684236188.4813607;1684236188.4914296;1684236189.244921;1684236189.7464929;1684236190.7281373;1684236191.344721;[];[];[]
pilot6blocks;49;2;0;1;False;3000;True;;8;50.035300909377156;eye;L;4.649895966053009;4.581020683050156;0;44.57;6.53;0.9006272000260651;0.9006973999785259;1684236192.201196;1684236192.2073333;1684236192.961423;1684236193.4628847;1684236196.4780717;1684236197.378697;[];[];[]
pilot6blocks;0;3;0;1;False;1000;True;;8;75.16883710299116;drag;L;1.9275757;6.5197415;0;73.53;6.8;1.5840008000377566;1.5840954000595957;1684236212.2261524;1684236212.2381537;1684236212.993734;1684236213.493934;1684236214.4771872;1684236216.0609217;[0.0, 0.0, 0.0, 0.0, 0.0, 0.0, 0.0, 0.0, 0.0, 0.0, 0.0, 0.0, 0.0, 0.0, 0.0, 0.0, 0.0, 0.0, 0.0, 0.0, 0.0, 0.0, 0.0, 0.0, 0.0, 0.0, 0.0, 0.0, 0.0, 0.0, 0.0, 0.0, 0.0, 0.0, 0.0, 0.28346702, 0.48189393, 0.53858733, 0.6236274, 0.76536095, 0.8220543, 0.87874776, 0.96378785, 1.0204812, 1.0488279, 1.1338681, 1.2189082, 1.3039483, 1.417335, 1.4740285, 1.5307219, 1.5307219, 1.5590686, 1.6157619, 1.7008021, 1.7291489, 1.7574955, 1.7858423, 1.7858423, 1.8141888, 1.8425356, 1.8708823, 1.8708823, 1.8708823, 1.899229, 1.899229, 1.899229, 1.899229, 1.899229, 1.899229, 1.899229, 1.899229, 1.899229, 1.899229, 1.899229, 1.899229, 1.899229, 1.899229, 1.899229, 1.899229, 1.899229, 1.899229, 1.9275757, 1.9275757, 1.9275757, 1.9275757, 1.9275757, 1.9275757, 1.9275757, 1.9275757, 1.9275757, 1.9275757, 1.9275757, 1.9275757, 1.9275757];[0.0, 0.0, 0.0, 0.0, 0.0, 0.0, 0.0, 0.0, 0.0, 0.0, 0.0, 0.0, 0.0, 0.0, 0.0, 0.0, 0.0, 0.0, 0.0, 0.0, 0.0, 0.0, 0.0, 0.0, 0.0, 0.0, 0.0, 0.0, 0.0, 0.0, 0.0, 0.0, 0.0, 0.0, 0.0, 0.73701423, 1.1622148, 1.3606416, 1.5307219, 1.899229, 2.0976558, 2.3244295, 2.57955, 2.7779768, 2.9197102, 3.1181371, 3.2315238, 3.4582977, 3.6283777, 3.7417645, 3.8551514, 3.8834982, 3.968538, 4.3086987, 4.9039793, 5.4425664, 5.6409936, 5.7260337, 5.8394203, 5.9528074, 6.037847, 6.1795807, 6.2362742, 6.321315, 6.378008, 6.434701, 6.491395, 6.548088, 6.5764346, 6.6047816, 6.633128, 6.633128, 6.633128, 6.633128, 6.633128, 6.633128, 6.633128, 6.6047816, 6.6047816, 6.6047816, 6.5764346, 6.5764346, 6.548088, 6.5197415, 6.5197415, 6.5197415, 6.5197415, 6.5197415, 6.5197415, 6.5197415, 6.5197415, 6.5197415, 6.5197415, 6.5197415, 6.5197415];[0.005220300052314997, 0.018413900048471987, 0.03359580005053431, 0.05167670000810176, 0.06667259999085218, 0.08475500007625669, 0.10056240006815642, 0.11751360003836453, 0.13406280009076, 0.15159430005587637, 0.16700970008969307, 0.18556090001948178, 0.19961800007149577, 0.2191976000322029, 0.2343717000912875, 0.2525671999901533, 0.2679567000595853, 0.28515140002127737, 0.3013706000056118, 0.31752750009763986, 0.3352400000439957, 0.35271920007653534, 0.3685856000520289, 0.3863415000960231, 0.40151860006153584, 0.41767600004095584, 0.43568260001484305, 0.45388819999061525, 0.46832099999301136, 0.48534290003590286, 0.5012217999901623, 0.5183194000273943, 0.5339837000938132, 0.5517950000939891, 0.567902100039646, 0.5845714000752196, 0.6021088000852615, 0.6185505000175908, 0.6335556000703946, 0.6519886000314727, 0.6674391000997275, 0.685054500005208, 0.7011794000864029, 0.7184561000904068, 0.7333446000702679, 0.7516345999902114, 0.7668316999915987, 0.7844351000385359, 0.8009683000855148, 0.8187228000024334, 0.8346119000343606, 0.8509557000361383, 0.8676529000513256, 0.8844325999962166, 0.902403200045228, 0.9186357000144199, 0.9350362000986934, 0.95218940009363, 0.9676688000326976, 0.9847016000421718, 1.0013741001021117, 1.0175654999911785, 1.0341226001037285, 1.0514849000610411, 1.0669606000883505, 1.0862228000769392, 1.1002192000159994, 1.1170926000922918, 1.1339454000117257, 1.151704000076279, 1.1666923000011593, 1.1839819001033902, 1.2013164000818506, 1.218307700008154, 1.233663700055331, 1.2511539000552148, 1.2677022001007572, 1.2838085000403225, 1.3003343000309542, 1.3181978000793606, 1.3345484000165015, 1.3515931000001729, 1.3676623000064865, 1.384540900005959, 1.401350700063631, 1.4200972000835463, 1.4361070001032203, 1.4531597000313923, 1.469322800054215, 1.4851662000874057, 1.5005174000980332, 1.5183324000099674, 1.5336419000523165, 1.5507397000910714, 1.567304200027138]
pilot6blocks;1;3;0;1;False;3000;True;;8;141.62344836977402;drag;L;-6.321315;4.166965;0;146.61;7.57;1.030685400008224;1.0308241999009624;1684236216.9174516;1684236216.9227219;1684236217.6771016;1684236218.1784384;1684236221.1785314;1684236222.20884;[0.0, 0.0, 0.0, 0.0, 0.0, 0.0, 0.0, 0.0, 0.0, 0.0, 0.0, 0.0, 0.0, 0.0, 0.0, 0.0, 0.0, 0.0, 0.0, 0.0, 0.0, 0.0, 0.0, 0.0, 0.0, -0.59528077, -2.0409625, -2.8630168, -3.1748307, -3.316564, -3.3732576, -3.4866443, -3.6000311, -3.6850712, -3.770111, -3.968538, -4.422086, -4.847286, -5.1874466, -5.3858733, -5.4992604, -5.5559535, -5.5843005, -5.612647, -5.6409936, -5.6409936, -5.66934, -5.697687, -5.782727, -5.924461, -6.0661945, -6.1795807, -6.2362742, -6.264621, -6.292968, -6.321315, -6.321315, -6.321315, -6.321315, -6.321315, -6.321315, -6.321315];[0.0, 0.0, 0.0, 0.0, 0.0, 0.0, 0.0, 0.0, 0.0, 0.0, 0.0, 0.0, 0.0, 0.0, 0.0, 0.0, 0.0, 0.0, 0.0, 0.0, 0.0, 0.0, 0.0, 0.0, 0.0, 0.36850712, 1.5023751, 2.1543493, 2.3527763, 2.466163, 2.5228565, 2.5512033, 2.6362433, 2.66459, 2.7212832, 2.7779768, 2.9764037, 3.146484, 3.3449106, 3.4582977, 3.514991, 3.5433376, 3.5716846, 3.5716846, 3.6000311, 3.6000311, 3.6283777, 3.6283777, 3.6850712, 3.8268046, 3.9401915, 4.0535784, 4.110272, 4.1386185, 4.1386185, 4.166965, 4.166965, 4.166965, 4.166965, 4.166965, 4.166965, 4.166965];[0.004233399988152087, 0.0169139999197796, 0.0337378999684006, 0.05135789990890771, 0.06652939994819462, 0.0825543999671936, 0.10042009991593659, 0.1161566999508068, 0.13385579991154373, 0.14917140000034124, 0.1673004999756813, 0.1833246999885887, 0.19976439990568906, 0.21604519989341497, 0.23320969997439533, 0.24971549992915243, 0.26628330000676215, 0.28241609991528094, 0.2999596999725327, 0.31588789995294064, 0.33323200000450015, 0.34867899992968887, 0.3658555999863893, 0.38248329993803054, 0.39943140000104904, 0.41598579997662455, 0.433077699970454, 0.4500852999044582, 0.46603169990703464, 0.4825686999829486, 0.49938819999806583, 0.5156700999941677, 0.5324999999720603, 0.5488494999008253, 0.5657082999823615, 0.5827412999933586, 0.6012438999023288, 0.6150696999393404, 0.6323305999394506, 0.6491383999818936, 0.6663415000075474, 0.6819549999199808, 0.6997472000075504, 0.7165277999592945, 0.733000599895604, 0.7488207999849692, 0.7678223999682814, 0.782869299990125, 0.7996132998960093, 0.8158336000051349, 0.832974899909459, 0.8485396999167278, 0.8657304999651387, 0.8820682999212295, 0.8990462999790907, 0.9151563999475911, 0.9327966999262571, 0.9487634999677539, 0.9662740000057966, 0.9832363999448717, 0.9994843999156728, 1.015153499902226]
pilot6blocks;2;3;0;1;False;1000;True;;8;107.22655852103254;drag;L;-2.7779768;6.7181687;0;112.47;7.27;1.6672189999371767;1.6672712999861687;1684236222.8948212;1684236222.9062006;1684236223.6593866;1684236224.1619456;1684236225.1420865;1684236226.8093073;[0.0, 0.0, 0.0, 0.0, 0.0, 0.0, 0.0, 0.0, 0.0, 0.0, 0.0, 0.0, 0.0, 0.0, 0.0, 0.0, 0.0, 0.0, 0.0, 0.0, 0.0, 0.0, 0.0, 0.0, 0.0, 0.0, 0.0, 0.0, 0.0, 0.0, 0.0, 0.0, 0.0, 0.0, 0.0, -0.0566934, -0.19842692, -0.2551203, -0.28346702, -0.3401604, -0.36850712, -0.48189393, -0.56693405, -0.6803208, -0.79370767, -0.96378785, -1.1905615, -1.2472548, -1.2472548, -1.2472548, -1.2472548, -1.2472548, -1.2472548, -1.2472548, -1.2472548, -1.2472548, -1.2472548, -1.2472548, -1.2472548, -1.2472548, -1.2472548, -1.2472548, -1.2472548, -1.5590686, -1.8425356, -2.0976558, -2.1543493, -2.182696, -2.211043, -2.211043, -2.2393894, -2.2393894, -2.2677362, -2.2677362, -2.2960827, -2.3527763, -2.4378164, -2.5512033, -2.6078966, -2.6362433, -2.66459, -2.6929367, -2.7212832, -2.7212832, -2.7212832, -2.7212832, -2.7212832, -2.7212832, -2.7496302, -2.7779768, -2.7779768, -2.7779768, -2.7779768, -2.7779768, -2.7779768, -2.7779768, -2.7779768, -2.7779768, -2.7779768, -2.7779768];[0.0, 0.0, 0.0, 0.0, 0.0, 0.0, 0.0, 0.0, 0.0, 0.0, 0.0, 0.0, 0.0, 0.0, 0.0, 0.0, 0.0, 0.0, 0.0, 0.0, 0.0, 0.0, 0.0, 0.0, 0.0, 0.0, 0.0, 0.0, 0.0, 0.0, 0.0, 0.0, 0.0, 0.0, 0.0, 0.2551203, 0.5102406, 0.59528077, 0.6236274, 0.6803208, 0.73701423, 0.87874776, 1.0204812, 1.1338681, 1.3039483, 1.6441087, 2.4945097, 2.8063235, 2.9197102, 3.0047503, 3.0047503, 3.0047503, 3.0047503, 3.0047503, 3.0047503, 3.0047503, 3.0047503, 3.0047503, 3.0047503, 3.0047503, 3.0047503, 3.0047503, 3.0047503, 3.6567245, 4.1953115, 4.733899, 4.7905927, 4.847286, 4.847286, 4.875633, 4.875633, 4.875633, 4.9039793, 4.9039793, 4.960673, 5.0740595, 5.2441397, 5.4425664, 5.4992604, 5.5843005, 5.697687, 5.811074, 5.9528074, 6.0095005, 6.037847, 6.094541, 6.151234, 6.4063544, 6.548088, 6.633128, 6.6898212, 6.7181687, 6.7181687, 6.7181687, 6.7181687, 6.7181687, 6.7181687, 6.7181687, 6.7181687, 6.7181687];[0.005163099966011941, 0.01916149992030114, 0.03490830003283918, 0.0525966000277549, 0.06812459998764098, 0.08540959993842989, 0.10179370001424104, 0.11907349992543459, 0.13607210002373904, 0.15358939999714494, 0.16786589997354895, 0.18747380003333092, 0.20159299997612834, 0.21940519998315722, 0.23459949996322393, 0.2533197000157088, 0.267382699996233, 0.2854405000107363, 0.3018541999626905, 0.32118319999426603, 0.33595219999551773, 0.35237630002666265, 0.36865219997707754, 0.38598679995629936, 0.4016842999262735, 0.41990069998428226, 0.4349936000071466, 0.4528823000146076, 0.4679737000260502, 0.4847450000233948, 0.5012247000122443, 0.520323499920778, 0.5345322999637574, 0.5523906999733299, 0.5686539999442175, 0.5853389999829233, 0.6033541000215337, 0.620593799976632, 0.6346331000095233, 0.652712499955669, 0.6692101999651641, 0.6851872999686748, 0.701630000025034, 0.7191605999832973, 0.7375757999252528, 0.752477900008671, 0.7698377999477088, 0.7859853999689221, 0.8019276999402791, 0.8183690999867395, 0.8345873999642208, 0.8520742999389768, 0.8683044000063092, 0.8856196999549866, 0.902070099953562, 0.91948699997738, 0.9382943999953568, 0.9521720999618992, 0.9690166999353096, 0.9853956999722868, 1.0010831999825314, 1.0206791999517009, 1.0342559999553487, 1.0531850999686867, 1.0690052999416366, 1.084816199960187, 1.1008591999998316, 1.1206113999942318, 1.1354201999492943, 1.1517707000020891, 1.168375900015235, 1.1875771000050008, 1.2028762999689206, 1.219208399998024, 1.2347321999259293, 1.2529615999665111, 1.269052500021644, 1.285777600016445, 1.3011943999445066, 1.3188218999421224, 1.334257600014098, 1.3529936999548227, 1.3695255999919027, 1.3860623999498785, 1.4020501000341028, 1.4215948999626562, 1.4342932000290602, 1.4526928999694064, 1.4685234000207856, 1.486644999939017, 1.5018582999473438, 1.519534199964255, 1.5347015999723226, 1.5519680000143126, 1.5691351999994367, 1.5857509999768808, 1.60096860001795, 1.6187581999693066, 1.6357101999456063, 1.6532648999709636]
pilot6blocks;3;3;0;1;False;3000;True;;8;-131.47558099241428;drag;L;-4.5071254;-5.66934;0;-128.48;7.24;1.6824930999428034;1.6825534000527114;1684236227.5613472;1684236227.572347;1684236228.3270867;1684236228.8258307;1684236231.8423746;1684236233.5249498;[0.0, 0.0, 0.0, 0.0, 0.0, 0.0, 0.0, 0.0, 0.0, 0.0, 0.0, 0.0, 0.0, 0.0, 0.0, 0.0, 0.0, 0.0, 0.0, 0.0, 0.0, 0.0, 0.0, 0.0, 0.0, 0.0, 0.0, 0.0, 0.0, 0.0, 0.0, 0.0, 0.0, 0.0, 0.0, 0.0, 0.0, 0.0, -0.2551203, -0.36850712, -0.39685383, -0.39685383, -0.42520052, -0.42520052, -0.4535472, -0.48189393, -0.5102406, -0.56693405, -0.65197414, -0.85040104, -1.899229, -3.0897903, -3.2031772, -3.2598708, -3.316564, -3.3732576, -3.4582977, -3.6283777, -3.8268046, -4.025232, -4.1953115, -4.478779, -4.762246, -4.960673, -5.0740595, -5.1591, -5.215793, -5.2441397, -5.2441397, -5.2724867, -5.2724867, -5.2724867, -5.2724867, -5.2724867, -5.2724867, -5.2724867, -5.2724867, -5.2724867, -5.2724867, -5.2441397, -5.1874466, -5.1591, -5.045713, -4.9890194, -4.932326, -4.847286, -4.818939, -4.762246, -4.733899, -4.7055526, -4.648859, -4.620512, -4.5921655, -4.5921655, -4.563819, -4.563819, -4.5354724, -4.5354724, -4.5071254, -4.5071254, -4.5071254];[0.0, 0.0, 0.0, 0.0, 0.0, 0.0, 0.0, 0.0, 0.0, 0.0, 0.0, 0.0, 0.0, 0.0, 0.0, 0.0, 0.0, 0.0, 0.0, 0.0, 0.0, 0.0, 0.0, 0.0, 0.0, 0.0, 0.0, 0.0, 0.0, 0.0, 0.0, 0.0, 0.0, 0.0, 0.0, 0.0, 0.0, 0.0, -0.3118137, -0.42520052, -0.4535472, -0.48189393, -0.48189393, -0.5102406, -0.5102406, -0.53858733, -0.56693405, -0.6236274, -0.76536095, -1.1055214, -2.5228565, -3.968538, -4.081925, -4.1386185, -4.1386185, -4.166965, -4.2236586, -4.337045, -4.4504323, -4.5921655, -4.7055526, -4.932326, -5.1874466, -5.32918, -5.41422, -5.4992604, -5.527607, -5.527607, -5.5559535, -5.5559535, -5.5559535, -5.5559535, -5.5559535, -5.5559535, -5.5559535, -5.5559535, -5.5559535, -5.5559535, -5.5559535, -5.5559535, -5.5559535, -5.5559535, -5.5559535, -5.5559535, -5.5559535, -5.5843005, -5.5843005, -5.5843005, -5.5843005, -5.5843005, -5.5843005, -5.5843005, -5.612647, -5.612647, -5.612647, -5.612647, -5.6409936, -5.6409936, -5.66934, -5.66934, -5.66934];[0.0036187999648973346, 0.01866209995932877, 0.03514990000985563, 0.05087210005149245, 0.06761020002886653, 0.08612089999951422, 0.10081880004145205, 0.11831809999421239, 0.13431069999933243, 0.15174000000115484, 0.16799660003744066, 0.18489719997160137, 0.2012766000116244, 0.21864760003518313, 0.23413770005572587, 0.252006100025028, 0.2684546000091359, 0.2849089000374079, 0.3017918999539688, 0.3188116999808699, 0.33471229998394847, 0.3519465000135824, 0.3668949999846518, 0.3843927000416443, 0.4021819999907166, 0.4174862999934703, 0.43423729995265603, 0.4516285000136122, 0.46659940003883094, 0.48565719998441637, 0.5012886000331491, 0.5177499999990687, 0.5335377999581397, 0.5513539999956265, 0.5665787999751046, 0.5841779999900609, 0.6007136000553146, 0.617893600021489, 0.6346209000330418, 0.6521296000573784, 0.6669077000115067, 0.6845666000153869, 0.7019154999870807, 0.7188755000242963, 0.7341247999574989, 0.7512447000481188, 0.7665190000552684, 0.7853454999858513, 0.8006673000054434, 0.8179780000355095, 0.8340840999735519, 0.8518108000280336, 0.8673168000532314, 0.8849636999657378, 0.9016090000513941, 0.918904299964197, 0.9348820999730378, 0.951880699954927, 0.9667906999820843, 0.9839480000082403, 1.0004381999606267, 1.018513199989684, 1.0338651000056416, 1.051494300016202, 1.0673121999716386, 1.0851465000305325, 1.101397900027223, 1.1189757999964058, 1.1355003999779, 1.1521138000534847, 1.1670887999935076, 1.1846199999563396, 1.2013019999722019, 1.2178666000254452, 1.2348798000020906, 1.2513202000409365, 1.2677983000176027, 1.2848279000027105, 1.3009854999836534, 1.31763669999782, 1.3330288999713957, 1.3519827000563964, 1.3674930999986827, 1.3843647999456152, 1.4016471999930218, 1.4174988999729976, 1.4337785999523476, 1.4520972999744117, 1.4677847999846563, 1.4858352000592276, 1.5007230000337586, 1.5183933000080287, 1.5343442000448704, 1.5508252000436187, 1.5670203999616206, 1.5853338000597432, 1.6005373999942094, 1.6177393000107259, 1.6336381000000983, 1.6507862999569625, 1.6681074999505654]
pilot6blocks;4;3;0;1;False;3000;True;;8;-157.525308833759;drag;L;0;0;0;0.0;0.0;0.0024071000516414642;0.002458199975080788;1684236234.336519;1684236234.355881;1684236235.1091115;1684236235.6097066;1684236238.6091337;1684236238.6119666;[];[];[]
pilot6blocks;5;3;0;1;False;1000;True;;8;-69.55583292437062;drag;L;2.3244295;-6.5197415;0;-70.38;6.92;1.617060499964282;1.6171108999988064;1684236239.392087;1684236239.4056127;1684236240.1585546;1684236240.6600637;1684236241.641854;1684236243.2590828;[0.0, 0.0, 0.0, 0.0, 0.0, 0.0, 0.0, 0.0, 0.0, 0.0, 0.0, 0.0, 0.0, 0.0, 0.0, 0.0, 0.0, 0.0, 0.0, 0.0, 0.0, 0.0, 0.0, 0.0, 0.0, 0.0, 0.0, 0.0, 0.0, 0.0, 0.0, 0.0, 0.0, 0.0, 0.0, 0.0, 0.0283467, 0.0283467, 0.0566934, 0.0850401, 0.1133868, 0.1700802, 0.2267736, 0.3118137, 0.36850712, 0.4535472, 0.59528077, 0.6803208, 0.6803208, 0.6803208, 0.76536095, 0.85040104, 0.93544114, 1.0204812, 1.0771747, 1.1338681, 1.2472548, 1.2756016, 1.332295, 1.417335, 1.4740285, 1.5590686, 1.6157619, 1.6441087, 1.6441087, 1.6724553, 1.7008021, 1.7291489, 1.7858423, 1.8425356, 1.8708823, 1.9275757, 1.9559225, 2.012616, 2.0409625, 2.0976558, 2.1543493, 2.182696, 2.182696, 2.211043, 2.2393894, 2.2677362, 2.2677362, 2.2960827, 2.3244295, 2.3244295, 2.3244295, 2.3244295, 2.3244295, 2.3244295, 2.3244295, 2.3244295, 2.3244295, 2.3244295, 2.3244295, 2.3244295, 2.3244295];[0.0, 0.0, 0.0, 0.0, 0.0, 0.0, 0.0, 0.0, 0.0, 0.0, 0.0, 0.0, 0.0, 0.0, 0.0, 0.0, 0.0, 0.0, 0.0, 0.0, 0.0, 0.0, 0.0, 0.0, 0.0, 0.0, 0.0, 0.0, 0.0, 0.0, 0.0, 0.0, -0.85040104, -2.6362433, -3.146484, -3.3449106, -3.4016042, -3.4582977, -3.4866443, -3.514991, -3.6000311, -3.6850712, -3.770111, -3.911845, -3.996885, -4.2236586, -4.818939, -5.527607, -5.6409936, -5.7260337, -5.782727, -5.8394203, -5.8394203, -5.896114, -5.924461, -5.9528074, -6.0661945, -6.151234, -6.2362742, -6.3496614, -6.5197415, -6.7465153, -6.9165955, -6.9732885, -7.0016356, -7.029982, -7.0583286, -7.0583286, -7.0583286, -7.0583286, -7.0583286, -7.0583286, -7.0583286, -7.029982, -7.0016356, -7.0016356, -6.9732885, -6.9732885, -6.9165955, -6.888248, -6.831555, -6.7181687, -6.6614747, -6.633128, -6.6047816, -6.5764346, -6.548088, -6.5197415, -6.5197415, -6.5197415, -6.5197415, -6.5197415, -6.5197415, -6.5197415, -6.5197415, -6.5197415, -6.5197415];[0.004333700053393841, 0.018786600092425942, 0.034216900006867945, 0.051403500023297966, 0.06796840007882565, 0.08497179998084903, 0.10096760001033545, 0.11827670002821833, 0.13348359998781234, 0.1517966000828892, 0.16827270004432648, 0.18486040004063398, 0.2013160000788048, 0.21809310000389814, 0.236349800019525, 0.2520565000595525, 0.26765150006394833, 0.28553640004247427, 0.30154130002483726, 0.3190825000638142, 0.33484989998396486, 0.35275050008203834, 0.36943850002717227, 0.385254800086841, 0.40018840006086975, 0.4192180000245571, 0.4357368000783026, 0.4516271000029519, 0.46759530005510896, 0.4841095000738278, 0.500485600088723, 0.5178230000892654, 0.5343593000434339, 0.5528132000472397, 0.5670704999938607, 0.5850963999982923, 0.6038487000623718, 0.6176255000755191, 0.6345519000897184, 0.6505436000879854, 0.6677515000337735, 0.6852223000023514, 0.701158200041391, 0.7173541000811383, 0.734756899997592, 0.7516014000866562, 0.766998799983412, 0.78462470008526, 0.8005434999940917, 0.8187806000933051, 0.8362276999978349, 0.8513555000536144, 0.866528999991715, 0.8854140000184998, 0.9014155000913888, 0.9179339000256732, 0.9338679000502452, 0.9523676000535488, 0.9677075000945479, 0.9849856999935582, 1.0015913000097498, 1.018034900072962, 1.0350505000678822, 1.053393300040625, 1.067254800000228, 1.084640400018543, 1.1030740999849513, 1.1196123000700027, 1.1334672999801114, 1.1511489000404254, 1.167015100014396, 1.1866157000185922, 1.200584200094454, 1.218874300015159, 1.2340665000956506, 1.2518304000841454, 1.2687779000261799, 1.2853171000024304, 1.3012343000154942, 1.317904100054875, 1.333926000050269, 1.3516981999855489, 1.3675395000027493, 1.3855206000152975, 1.4004283000249416, 1.4179306000005454, 1.4345787999918684, 1.4514038000488654, 1.466771100065671, 1.4853584000375122, 1.5007136000785977, 1.5173479000804946, 1.5345294000580907, 1.5507035000482574, 1.568721399991773, 1.5851137000136077, 1.6020667999982834]
pilot6blocks;6;3;0;1;False;1000;True;;8;-140.07160049965609;drag;L;-5.8394203;-4.932326;0;-139.81;7.64;1.2510564000112936;1.2511340000201017;1684236244.107223;1684236244.1212442;1684236244.875486;1684236245.3777857;1684236246.3587859;1684236247.6104112;[0.0, 0.0, 0.0, 0.0, 0.0, 0.0, 0.0, 0.0, 0.0, 0.0, 0.0, 0.0, 0.0, 0.0, 0.0, 0.0, 0.0, 0.0, 0.0, 0.0, 0.0, 0.0, 0.0, 0.0, 0.0, 0.0, 0.0, 0.0, 0.0, 0.0, 0.0, -0.7086675, -1.3889884, -2.381123, -3.1181371, -3.713418, -3.9401915, -4.081925, -4.2236586, -4.252005, -4.3086987, -4.422086, -4.620512, -4.932326, -5.2441397, -5.32918, -5.3575263, -5.41422, -5.4425664, -5.4709134, -5.527607, -5.6409936, -5.66934, -5.7260337, -5.75438, -5.75438, -5.782727, -5.782727, -5.782727, -5.811074, -5.811074, -5.811074, -5.811074, -5.8394203, -5.8394203, -5.8394203, -5.8394203, -5.8394203, -5.8394203, -5.8394203, -5.8394203, -5.8394203, -5.8394203, -5.8394203, -5.8394203];[0.0, 0.0, 0.0, 0.0, 0.0, 0.0, 0.0, 0.0, 0.0, 0.0, 0.0, 0.0, 0.0, 0.0, 0.0, 0.0, 0.0, 0.0, 0.0, 0.0, 0.0, 0.0, 0.0, 0.0, 0.0, 0.0, 0.0, 0.0, 0.0, 0.0, 0.0, -0.42520052, -0.79370767, -1.4740285, -2.012616, -2.57955, -2.8063235, -2.9197102, -3.0047503, -3.0330973, -3.0330973, -3.1181371, -3.2882173, -3.514991, -3.7417645, -3.798458, -3.8268046, -3.8551514, -3.8551514, -3.9401915, -4.025232, -4.1953115, -4.2236586, -4.2803516, -4.337045, -4.365392, -4.3937387, -4.4504323, -4.4504323, -4.5071254, -4.5071254, -4.5354724, -4.5921655, -4.648859, -4.733899, -4.7905927, -4.818939, -4.847286, -4.875633, -4.9039793, -4.932326, -4.932326, -4.932326, -4.932326, -4.932326];[0.0035957000218331814, 0.01823580008931458, 0.03582230000756681, 0.05104280007071793, 0.06722490000538528, 0.08602470008190721, 0.10203890001866966, 0.11963050009217113, 0.13516250008251518, 0.15203490003477782, 0.16732350003439933, 0.18451620009727776, 0.19974760001059622, 0.2182459000032395, 0.23549089999869466, 0.2522169000003487, 0.26709720003418624, 0.2841605000430718, 0.3010893000755459, 0.31998370005749166, 0.3356098000658676, 0.35330320009961724, 0.3686816000845283, 0.38478170009329915, 0.4000379000790417, 0.41928800009191036, 0.43447430001106113, 0.4520747000351548, 0.46833030006382614, 0.48455870000179857, 0.5001380000030622, 0.5173193000955507, 0.5342664000345394, 0.5510166001040488, 0.5675266000907868, 0.5853754000272602, 0.601051100064069, 0.6190514999907464, 0.6340917000779882, 0.6517394999973476, 0.6677506000269204, 0.6836683000437915, 0.7008770999964327, 0.717462700093165, 0.7333105000434443, 0.7532012000447139, 0.7661876000929624, 0.7838124000700191, 0.8001293000997975, 0.8173835000488907, 0.8343248000601307, 0.852355100098066, 0.8668419000459835, 0.8854579000035301, 0.899493100005202, 0.9182709000306204, 0.9334812000161037, 0.9510306000011042, 0.9668960000853986, 0.9829903000500053, 1.0008175000548363, 1.017998900031671, 1.035906400065869, 1.0510682000312954, 1.066103000077419, 1.0846434000413865, 1.1000544000416994, 1.1178736001020297, 1.133161900099367, 1.1504193000728264, 1.1693296000594273, 1.183151000062935, 1.1999498000368476, 1.2177128000184894, 1.2340480000711977]
pilot6blocks;7;3;0;1;False;3000;True;;8;95.66521276616433;drag;L;-1.899229;7.143369;0;104.89;7.39;1.2333128000609577;1.2333544000284746;1684236248.3473167;1684236248.3553288;1684236249.1086004;1684236249.610314;1684236252.6074448;1684236253.840069;[0.0, 0.0, 0.0, 0.0, 0.0, 0.0, 0.0, 0.0, 0.0, 0.0, 0.0, 0.0, 0.0, 0.0, 0.0, 0.0, 0.0, 0.0, 0.0, 0.0, 0.0, 0.0, -0.1133868, -0.1700802, -0.2267736, -0.2551203, -0.2551203, -0.2551203, -0.2551203, -0.2551203, -0.3118137, -0.3401604, -0.36850712, -0.39685383, -0.4535472, -0.56693405, -0.6236274, -0.6803208, -0.7086675, -0.79370767, -0.8220543, -0.9070944, -0.9921345, -1.0488279, -1.1622148, -1.2472548, -1.332295, -1.417335, -1.4740285, -1.5307219, -1.5590686, -1.6157619, -1.6157619, -1.6724553, -1.7008021, -1.7291489, -1.7574955, -1.7858423, -1.7858423, -1.8425356, -1.8425356, -1.8708823, -1.8708823, -1.8708823, -1.899229, -1.899229, -1.899229, -1.899229, -1.899229, -1.899229];[0.0, 0.0, 0.0, 0.0, 0.0, 0.0, 0.0, 0.0, 0.0, 0.0, 0.0, 0.0, 0.0, 0.0, 0.0, 0.0, 0.0, 0.0, 0.0, 0.0, 0.0, 0.0, 0.53858733, 0.93544114, 1.1622148, 1.3606416, 1.6441087, 1.8141888, 2.0409625, 2.3244295, 2.8630168, 3.2882173, 3.7417645, 4.1386185, 4.5071254, 4.932326, 5.130753, 5.300833, 5.4425664, 5.5843005, 5.75438, 5.981154, 6.151234, 6.3496614, 6.4630475, 6.6047816, 6.6898212, 6.8599014, 6.9165955, 6.944942, 7.0016356, 7.029982, 7.029982, 7.0583286, 7.086675, 7.086675, 7.1150217, 7.1150217, 7.143369, 7.143369, 7.143369, 7.143369, 7.143369, 7.143369, 7.143369, 7.143369, 7.143369, 7.143369, 7.143369, 7.143369];[0.004058400052599609, 0.01806520007085055, 0.034930899972096086, 0.051323299994692206, 0.06980300007853657, 0.12934370001312345, 0.149430499994196, 0.16920440003741533, 0.18547839997336268, 0.2017563000554219, 0.21764529997017235, 0.23516420007217675, 0.25013180007226765, 0.2782979999901727, 0.3064383000601083, 0.3184997000498697, 0.334461500053294, 0.35250949999317527, 0.3684039000654593, 0.3851719000376761, 0.40095659997314215, 0.4181741999927908, 0.4348936000606045, 0.45151390007231385, 0.46847810002509505, 0.48572080000303686, 0.5007608999731019, 0.5186852000188082, 0.5349016999825835, 0.5524853999959305, 0.5698867000173777, 0.5857691999990493, 0.6015276999678463, 0.6191141000017524, 0.6357977000297979, 0.6533714999677613, 0.6671928999712691, 0.6858781999908388, 0.7012225000653416, 0.7189102000556886, 0.7346110000507906, 0.7517945000436157, 0.7681985000381246, 0.7864741999655962, 0.8039032999658957, 0.8178536000195891, 0.8360518000554293, 0.8524567000567913, 0.8686949000693858, 0.886411500046961, 0.9028419000096619, 0.9194281999953091, 0.9351543000666425, 0.9523585999850184, 0.9677119000116363, 0.9859554000431672, 1.0018085000338033, 1.0187763000139967, 1.0348694999702275, 1.0524127000244334, 1.0680391000350937, 1.0866848999867216, 1.1028362000361085, 1.1192726000444964, 1.135103699984029, 1.151890099979937, 1.1683174000354484, 1.1857657000655308, 1.2016517000738531, 1.219340700074099]
pilot6blocks;8;3;0;1;False;3000;True;;8;-38.390289142083574;drag;L;5.300833;-5.1874466;0;-44.38;7.42;1.3480581000912935;1.3481283999281004;1684236254.5179293;1684236254.5385065;1684236255.2919977;1684236255.793566;1684236258.7915452;1684236260.1398103;[0.0, 0.0, 0.0, 0.0, 0.0, 0.0, 0.0, 0.0, 0.0, 0.0, 0.0, 0.0, 0.0, 0.0, 0.0, 0.0, 0.0, 0.0, 0.0, 0.0, 0.0, 0.0, 0.0, 0.0, 0.0, 0.28346702, 0.8220543, 1.2189082, 1.6441087, 1.7574955, 1.9559225, 2.0693092, 2.182696, 2.2677362, 2.3527763, 2.5512033, 2.7212832, 2.8630168, 3.0047503, 3.1181371, 3.2031772, 3.2882173, 3.3732576, 3.4582977, 3.5716846, 3.7417645, 3.8268046, 3.968538, 4.1386185, 4.337045, 4.5071254, 4.563819, 4.620512, 4.648859, 4.7055526, 4.7055526, 4.7055526, 4.733899, 4.762246, 4.762246, 4.762246, 4.762246, 4.7905927, 4.818939, 4.932326, 5.017366, 5.1024065, 5.1591, 5.1874466, 5.215793, 5.2724867, 5.2724867, 5.300833, 5.300833, 5.300833, 5.300833, 5.300833, 5.300833, 5.300833, 5.300833, 5.300833];[0.0, 0.0, 0.0, 0.0, 0.0, 0.0, 0.0, 0.0, 0.0, 0.0, 0.0, 0.0, 0.0, 0.0, 0.0, 0.0, 0.0, 0.0, 0.0, 0.0, 0.0, 0.0, 0.0, 0.0, 0.0, -0.7086675, -1.6157619, -2.0976558, -2.6078966, -2.7212832, -2.9764037, -3.1181371, -3.2315238, -3.2882173, -3.3732576, -3.4866443, -3.6283777, -3.770111, -3.8834982, -3.968538, -4.0535784, -4.110272, -4.1953115, -4.252005, -4.337045, -4.422086, -4.4504323, -4.5354724, -4.6772056, -4.818939, -4.932326, -4.9890194, -5.017366, -5.0740595, -5.1024065, -5.1024065, -5.130753, -5.130753, -5.1874466, -5.1874466, -5.1874466, -5.1874466, -5.1874466, -5.1874466, -5.1874466, -5.1874466, -5.1874466, -5.1874466, -5.1874466, -5.1874466, -5.1874466, -5.1874466, -5.1874466, -5.1874466, -5.1874466, -5.1874466, -5.1874466, -5.1874466, -5.1874466, -5.1874466, -5.1874466];[0.003920499933883548, 0.017354799900203943, 0.03500379994511604, 0.05207109998445958, 0.06818229996133596, 0.0842718998901546, 0.10229609999805689, 0.1174167999997735, 0.13495549990329891, 0.15156929998192936, 0.16845279990229756, 0.18540570000186563, 0.20069169998168945, 0.21795089996885508, 0.23500839993357658, 0.251209499896504, 0.26823919999878854, 0.284112999914214, 0.30154879996553063, 0.3169559999369085, 0.33493949996773154, 0.3505182999651879, 0.36796819989103824, 0.38405279989819974, 0.4006990999914706, 0.4167217999929562, 0.4348687999881804, 0.4504409999353811, 0.46989969990681857, 0.48389619996305555, 0.500933799892664, 0.5164186999900267, 0.5340969999087974, 0.5516545999562368, 0.5675647999159992, 0.5830765999853611, 0.6006028999108821, 0.6186060999752954, 0.6339574999874458, 0.6516152999829501, 0.6679759999969974, 0.6834802998928353, 0.7026602999540046, 0.7165587999625131, 0.73512159998063, 0.7509857999393716, 0.7670766999945045, 0.783492699963972, 0.8019373998977244, 0.8193334999959916, 0.8346918999450281, 0.850215999991633, 0.8682859999826178, 0.8834115999052301, 0.9023329999763519, 0.916587199899368, 0.9342525999527425, 0.9507216999772936, 0.9701108000008389, 0.9845299998996779, 1.0011958999093622, 1.0165345999412239, 1.0334715999197215, 1.0509644999401644, 1.0684698999393731, 1.0832913999911398, 1.1004030999029055, 1.1163504999130964, 1.1347107999026775, 1.1502051999559626, 1.1671638999832794, 1.1837173999520019, 1.2015657000010833, 1.2174425999401137, 1.2338403000030667, 1.2498576999641955, 1.2678775999229401, 1.2834272999316454, 1.3010668999049813, 1.3171343998983502, 1.3344813999719918]
pilot6blocks;9;3;0;1;False;1000;True;;8;-32.95903640416933;drag;L;6.2079277;-4.2236586;0;-34.23;7.51;1.3830082999775186;1.3830674999626353;1684236260.8765485;1684236260.887948;1684236261.6416302;1684236262.141872;1684236263.1238058;1684236264.5068665;[0.0, 0.0, 0.0, 0.0, 0.0, 0.0, 0.0, 0.0, 0.0, 0.0, 0.0, 0.0, 0.0, 0.0, 0.0, 0.0, 0.0, 0.0, 0.0, 0.0, 0.0, 0.0, 0.0, 0.0, 0.0, 0.0, 0.0, 0.0, 0.0, 0.0, 0.53858733, 1.5307219, 2.0693092, 2.182696, 2.2393894, 2.3244295, 2.4094696, 2.7212832, 2.9764037, 3.2598708, 3.4016042, 3.514991, 3.6567245, 3.8268046, 4.1953115, 4.620512, 4.818939, 4.960673, 4.9890194, 5.045713, 5.1591, 5.5559535, 5.924461, 6.1228876, 6.1228876, 6.1228876, 6.1228876, 6.1228876, 6.1228876, 6.1228876, 6.1228876, 6.1228876, 6.1228876, 6.1228876, 6.1228876, 6.1228876, 6.1228876, 6.1228876, 6.1228876, 6.1228876, 6.1228876, 6.151234, 6.151234, 6.151234, 6.1795807, 6.1795807, 6.1795807, 6.1795807, 6.1795807, 6.1795807, 6.2079277, 6.2079277, 6.2079277];[0.0, 0.0, 0.0, 0.0, 0.0, 0.0, 0.0, 0.0, 0.0, 0.0, 0.0, 0.0, 0.0, 0.0, 0.0, 0.0, 0.0, 0.0, 0.0, 0.0, 0.0, 0.0, 0.0, 0.0, 0.0, 0.0, 0.0, 0.0, 0.0, 0.0, -0.39685383, -1.2189082, -1.7291489, -1.8141888, -1.8425356, -1.899229, -1.984269, -2.211043, -2.3527763, -2.5512033, -2.6362433, -2.6929367, -2.7496302, -2.8630168, -3.0614438, -3.3732576, -3.6000311, -3.7417645, -3.770111, -3.798458, -3.8268046, -3.996885, -4.1386185, -4.1953115, -4.1953115, -4.1953115, -4.1953115, -4.1953115, -4.1953115, -4.1953115, -4.1953115, -4.1953115, -4.1953115, -4.1953115, -4.1953115, -4.1953115, -4.1953115, -4.1953115, -4.1953115, -4.1953115, -4.1953115, -4.2236586, -4.2236586, -4.2236586, -4.2236586, -4.2236586, -4.2236586, -4.2236586, -4.2236586, -4.2236586, -4.2236586, -4.2236586, -4.2236586];[0.0038116000359877944, 0.019163800054229796, 0.034495500032790005, 0.05251710000447929, 0.06784250005148351, 0.08585260005202144, 0.10080809995997697, 0.11803839995991439, 0.1347727000247687, 0.15174130001105368, 0.16791509999893606, 0.18550899997353554, 0.20047410007100552, 0.2183916000649333, 0.23364750004839152, 0.2515077000716701, 0.26853320002555847, 0.2846556999720633, 0.30049319996032864, 0.3179752000141889, 0.3346366999903694, 0.3518585000419989, 0.3675119000254199, 0.3848441999871284, 0.4019069999922067, 0.41955430002417415, 0.434406999964267, 0.4517627999885008, 0.46806280000600964, 0.48517900006845593, 0.5009035000111908, 0.5183536000549793, 0.5342651000246406, 0.5525815000291914, 0.5677418999839574, 0.5879707999993116, 0.599874300067313, 0.61849240004085, 0.6343827999662608, 0.6533739999867976, 0.6682713000336662, 0.6858237000415102, 0.701369300018996, 0.7184798000380397, 0.7334706999827176, 0.7519059999613091, 0.7682125000283122, 0.7852667999686673, 0.8016816000454128, 0.8190694999648258, 0.8340568999992684, 0.8532202000496909, 0.8681522000115365, 0.8856701999902725, 0.9007099000737071, 0.9181133999954909, 0.9346155000384897, 0.951530999969691, 0.9692152000498027, 0.9863756999839097, 1.0017033000476658, 1.0190794999944046, 1.0342349000275135, 1.0518818000564352, 1.0676367999985814, 1.0846879000309855, 1.101394600002095, 1.119187599979341, 1.135500599979423, 1.1510666999965906, 1.1681572999805212, 1.185355499968864, 1.2014353000558913, 1.2185110000427812, 1.235301300068386, 1.2509518000297248, 1.266687500057742, 1.283366100047715, 1.3001585999736562, 1.3179359000641853, 1.3366468000458553, 1.3515677000395954, 1.36631099996157]
pilot6blocks;10;3;0;1;False;1000;True;;8;144.44700575749044;drag;L;0;0;0;0.0;0.0;0.0022957000182941556;0.002383999992161989;1684236265.2203853;1684236265.2367818;1684236265.991883;1684236266.491311;1684236267.4756658;1684236267.4777596;[];[];[]
pilot6blocks;11;3;0;1;False;3000;True;;8;87.64090603768975;drag;L;-0.3401604;7.0016356;0;92.78;7.01;1.3324022999731824;1.3324830000055954;1684236268.3119702;1684236268.3199918;1684236269.0749047;1684236269.5877264;1684236272.5908153;1684236273.9238064;[0.0, 0.0, 0.0, 0.0, 0.0, 0.0, 0.0, 0.0, 0.0, 0.0, 0.0, 0.0, 0.0, 0.0, 0.0, 0.0, 0.0, 0.0, 0.0, 0.0, 0.0, 0.0, 0.0, 0.0, 0.0, 0.0, 0.0, 0.0, 0.0, 0.0, 0.0, 0.0, 0.0, 0.0, 0.0, 0.0, 0.0, 0.0, 0.1133868, 0.14173351, 0.14173351, 0.14173351, 0.14173351, 0.14173351, 0.14173351, 0.14173351, 0.14173351, 0.1133868, 0.1133868, 0.1133868, 0.1133868, 0.0850401, 0.0850401, 0.0566934, 0.0566934, 0.0566934, 0.0283467, 0.0, 0.0, -0.0283467, -0.0566934, -0.0850401, -0.0850401, -0.1133868, -0.1133868, -0.1133868, -0.14173351, -0.1700802, -0.2267736, -0.2551203, -0.28346702, -0.3118137, -0.3401604, -0.3401604, -0.3401604, -0.3401604, -0.3401604, -0.3401604, -0.3401604, -0.3401604];[0.0, 0.0, 0.0, 0.0, 0.0, 0.0, 0.0, 0.0, 0.0, 0.0, 0.0, 0.0, 0.0, 0.0, 0.0, 0.0, 0.0, 0.0, 0.0, 0.0, 0.0, 0.0, 0.0, 0.0, 0.0, 0.0, 0.0, 0.0, 0.0, 0.0, 1.1055214, 1.6441087, 2.012616, 2.2960827, 2.4945097, 2.9764037, 3.514991, 4.4504323, 5.3575263, 5.6409936, 5.811074, 6.037847, 6.1795807, 6.4063544, 6.548088, 6.6047816, 6.6898212, 6.7181687, 6.774862, 6.831555, 6.888248, 6.9165955, 6.9732885, 6.9732885, 7.0016356, 7.0016356, 7.0016356, 7.0016356, 7.0016356, 7.0016356, 7.0016356, 7.0016356, 7.0016356, 7.0016356, 7.0016356, 7.0016356, 7.0016356, 7.0016356, 7.0016356, 7.0016356, 7.0016356, 7.0016356, 7.0016356, 7.0016356, 7.0016356, 7.0016356, 7.0016356, 7.0016356, 7.0016356, 7.0016356];[0.0036506999749690294, 0.01851129997521639, 0.03615579998586327, 0.051974200061522424, 0.06760720000602305, 0.08523019996937364, 0.10112030000891536, 0.11895490007009357, 0.13395990000572056, 0.1519572000252083, 0.16893779998645186, 0.1853397999657318, 0.2012133999960497, 0.21955430007074028, 0.23398620006628335, 0.2522057000314817, 0.26864290004596114, 0.28677650005556643, 0.3019579000538215, 0.3204763999674469, 0.3352286000736058, 0.35279340005945414, 0.3684799000620842, 0.38658190006390214, 0.4011817000573501, 0.4206887000473216, 0.43481080001220107, 0.4505398999899626, 0.4673927000258118, 0.4850595999741927, 0.5015442000003532, 0.5171129000373185, 0.534027999965474, 0.550747700035572, 0.5674278000369668, 0.5845057000406086, 0.6005335999652743, 0.6184525999706239, 0.6348196000326425, 0.6511796000413597, 0.6680924000684172, 0.6844412999926135, 0.7006925999885425, 0.7189658000133932, 0.7335825000191107, 0.7521985999774188, 0.7667328000534326, 0.7849160999758169, 0.8019126000581309, 0.8181005000369623, 0.8342603000346571, 0.8512993999756873, 0.8669477000366896, 0.8854387999745086, 0.900508200051263, 0.9182896000565961, 0.9348932000575587, 0.9514995999634266, 0.9678384000435472, 0.9856097999727353, 1.0000137999886647, 1.0185467000119388, 1.0327826000284404, 1.0507309000240639, 1.0678583000553772, 1.0839226000243798, 1.1001192000694573, 1.116612800047733, 1.1330068999668583, 1.151149500044994, 1.1664173000026494, 1.1840191000374034, 1.2028618999756873, 1.2171222000615671, 1.2337409000610933, 1.2505655999993905, 1.267229299992323, 1.2838462999789044, 1.2998992999782786, 1.317243400029838]
pilot6blocks;12;3;0;1;False;3000;True;;8;125.93492752845864;drag;L;-4.9890194;6.037847;0;129.57;7.83;1.3801270000403747;1.380225699977018;1684236274.7587714;1684236274.7710283;1684236275.5257077;1684236276.0268595;1684236279.02573;1684236280.406734;[0.0, 0.0, 0.0, 0.0, 0.0, 0.0, 0.0, 0.0, 0.0, 0.0, 0.0, 0.0, 0.0, 0.0, 0.0, 0.0, 0.0, 0.0, 0.0, 0.0, 0.0, 0.0, 0.0, 0.0, 0.0, 0.0, -1.984269, -2.57955, -2.8913634, -3.0047503, -3.0614438, -3.0897903, -3.1748307, -3.316564, -3.6000311, -4.0535784, -4.3086987, -4.5071254, -4.762246, -4.875633, -5.045713, -5.130753, -5.1874466, -5.215793, -5.2441397, -5.2724867, -5.300833, -5.300833, -5.32918, -5.32918, -5.32918, -5.32918, -5.32918, -5.32918, -5.32918, -5.32918, -5.300833, -5.300833, -5.300833, -5.2724867, -5.215793, -5.1874466, -5.1874466, -5.1591, -5.130753, -5.1024065, -5.1024065, -5.0740595, -5.0740595, -5.045713, -5.045713, -5.017366, -4.9890194, -4.9890194, -4.9890194, -4.9890194, -4.9890194, -4.9890194, -4.9890194, -4.9890194, -4.9890194, -4.9890194, -4.9890194];[0.0, 0.0, 0.0, 0.0, 0.0, 0.0, 0.0, 0.0, 0.0, 0.0, 0.0, 0.0, 0.0, 0.0, 0.0, 0.0, 0.0, 0.0, 0.0, 0.0, 0.0, 0.0, 0.0, 0.0, 0.0, 0.0, 2.8913634, 4.0535784, 4.648859, 4.875633, 4.932326, 4.960673, 4.9890194, 5.017366, 5.1874466, 5.6409936, 5.9528074, 6.2362742, 6.548088, 6.6614747, 6.774862, 6.831555, 6.8599014, 6.8599014, 6.888248, 6.888248, 6.888248, 6.888248, 6.888248, 6.888248, 6.888248, 6.888248, 6.8599014, 6.774862, 6.6047816, 6.491395, 6.4063544, 6.3496614, 6.321315, 6.264621, 6.2362742, 6.2079277, 6.1795807, 6.151234, 6.151234, 6.1228876, 6.1228876, 6.094541, 6.094541, 6.0661945, 6.037847, 6.037847, 6.037847, 6.037847, 6.037847, 6.037847, 6.037847, 6.037847, 6.037847, 6.037847, 6.037847, 6.037847, 6.037847];[0.003732800018042326, 0.016832799999974668, 0.033816999988630414, 0.048959100036881864, 0.06655710004270077, 0.08259180001914501, 0.09957179997581989, 0.11579589999746531, 0.1331789999967441, 0.1483649000292644, 0.16559730004519224, 0.18205960001796484, 0.19885709998197854, 0.215077199973166, 0.23448490002192557, 0.25013199995737523, 0.2669877000153065, 0.2831597999902442, 0.3022620000410825, 0.316349699976854, 0.33467929996550083, 0.34917840000707656, 0.36670300003606826, 0.3826553999679163, 0.39874360000249, 0.41589129995554686, 0.4337521999841556, 0.44912580004893243, 0.46626749995630234, 0.48095400002785027, 0.4989828000543639, 0.5162045999895781, 0.5316447999794036, 0.549301499966532, 0.5659907000372186, 0.5815784999867901, 0.5986327000427991, 0.6143385999603197, 0.6318218000233173, 0.648878899984993, 0.6656062999973074, 0.6805999999633059, 0.6994572000112385, 0.7148560000350699, 0.7320166999706998, 0.7476446999935433, 0.7646045000292361, 0.7818766999989748, 0.7980103000300005, 0.8142664000624791, 0.8318022000603378, 0.8478001999901608, 0.8654085999587551, 0.8815603000111878, 0.8983149999985471, 0.9160586999496445, 0.9319955999962986, 0.9474285000469536, 0.96492960001342, 0.9811089000431821, 1.0008621000451967, 1.0150353000499308, 1.0316993000451475, 1.0485131000168622, 1.0651419999776408, 1.0808194000273943, 1.0981282000429928, 1.1141392999561504, 1.1320486000040546, 1.1473087000194937, 1.1651586999651045, 1.182697599986568, 1.1980556000489742, 1.2149037000490353, 1.232336499961093, 1.2486758000450209, 1.2687776000238955, 1.282906600041315, 1.2999542000470683, 1.3155821999534965, 1.3332488000160083, 1.3485242000315338, 1.3662679999833927]
pilot6blocks;13;3;0;1;False;1000;True;;8;74.45485561509341;drag;L;2.1543493;7.1717157;0;73.28;7.49;1.466247700038366;1.4663010999793187;1684236281.094224;1684236281.1029248;1684236281.8588018;1684236282.358635;1684236283.339987;1684236284.8063223;[0.0, 0.0, 0.0, 0.0, 0.0, 0.0, 0.0, 0.0, 0.0, 0.0, 0.0, 0.0, 0.0, 0.0, 0.0, 0.0, 0.0, 0.0, 0.0, 0.0, 0.0, 0.0, 0.0, 0.0, 0.0, 0.0, 0.0, 0.0, 0.0, 0.0, 0.0, 0.0, 0.0, 0.0, 0.0, 0.0, 0.8220543, 1.1622148, 1.2189082, 1.2472548, 1.2472548, 1.332295, 1.4740285, 1.7574955, 1.8425356, 1.8708823, 1.899229, 1.899229, 1.9275757, 1.9275757, 2.012616, 2.1543493, 2.211043, 2.2393894, 2.2393894, 2.2393894, 2.2393894, 2.182696, 2.182696, 2.1543493, 2.1543493, 2.1543493, 2.1260026, 2.1260026, 2.1260026, 2.1543493, 2.1543493, 2.1543493, 2.1543493, 2.1543493, 2.1543493, 2.1543493, 2.1543493, 2.1543493, 2.1543493, 2.1543493, 2.1543493, 2.1543493, 2.1543493, 2.1543493, 2.1543493, 2.1543493, 2.1543493, 2.1543493, 2.1543493, 2.1543493, 2.1543493, 2.1543493];[0.0, 0.0, 0.0, 0.0, 0.0, 0.0, 0.0, 0.0, 0.0, 0.0, 0.0, 0.0, 0.0, 0.0, 0.0, 0.0, 0.0, 0.0, 0.0, 0.0, 0.0, 0.0, 0.0, 0.0, 0.0, 0.0, 0.0, 0.0, 0.0, 0.0, 0.0, 0.0, 0.0, 0.0, 0.0, 0.0, 1.417335, 2.012616, 2.182696, 2.2960827, 2.381123, 2.57955, 2.948057, 3.6850712, 3.8834982, 3.968538, 4.025232, 4.081925, 4.110272, 4.166965, 4.337045, 4.7905927, 5.1874466, 5.4992604, 5.782727, 5.9528074, 6.094541, 6.2362742, 6.292968, 6.3496614, 6.378008, 6.434701, 6.5197415, 6.6047816, 6.7465153, 6.9165955, 7.0016356, 7.029982, 7.0583286, 7.086675, 7.1150217, 7.1150217, 7.143369, 7.143369, 7.143369, 7.1717157, 7.1717157, 7.1717157, 7.1717157, 7.1717157, 7.1717157, 7.1717157, 7.1717157, 7.1717157, 7.1717157, 7.1717157, 7.1717157, 7.1717157];[0.003658900037407875, 0.018449399969540536, 0.034937100019305944, 0.05190309998579323, 0.06865350005682558, 0.08605609997175634, 0.10215930000413209, 0.11949439998716116, 0.13536509999539703, 0.15240270004142076, 0.1686862000497058, 0.18573140003718436, 0.20086490001995116, 0.21908189996611327, 0.23518449999392033, 0.2540088000241667, 0.2679688000353053, 0.28416180005297065, 0.30216960003599524, 0.3180935999844223, 0.33511069999076426, 0.3526890999637544, 0.3686637000646442, 0.3872618000023067, 0.4029735999647528, 0.4193558000260964, 0.4356134000699967, 0.4523174000205472, 0.46917900000698864, 0.48623869998846203, 0.502540500019677, 0.5186472999630496, 0.5354878000216559, 0.5515597000485286, 0.5672795999562368, 0.5858813000377268, 0.6023322000401095, 0.6201918000588194, 0.6341843999689445, 0.6517065999796614, 0.6681719999760389, 0.6849940000101924, 0.7013291000621393, 0.7175744000123814, 0.7332062000641599, 0.7523071999894455, 0.7676095999777317, 0.785022099968046, 0.8014858000678942, 0.8175984000554308, 0.8355133000295609, 0.8520909000653774, 0.8671324000461027, 0.8844860000535846, 0.9005413000704721, 0.9184264000505209, 0.9348661999683827, 0.9512857999652624, 0.967544800019823, 0.984116300009191, 1.0007458999752998, 1.0193600000347942, 1.0346666000550613, 1.0516384000657126, 1.0683340000687167, 1.0838569999905303, 1.1009549000300467, 1.1175341999623924, 1.1338112000375986, 1.1512113000499085, 1.1689376999856904, 1.1851478000171483, 1.2014411999844015, 1.2183980999980122, 1.2346341999946162, 1.2519408999942243, 1.2659124999772757, 1.2847512000007555, 1.3015880000311881, 1.3189163999632, 1.3346535000018775, 1.3519337000325322, 1.36805120005738, 1.3856742000207305, 1.4006006000563502, 1.4192767000058666, 1.4348073999863118, 1.451940800063312]
pilot6blocks;14;3;0;1;False;3000;True;;8;-148.43559785470197;drag;L;-5.981154;-3.8268046;0;-147.39;7.1;1.3812894000438973;1.381494199973531;1684236285.713464;1684236285.7205672;1684236286.4724433;1684236286.9756503;1684236289.973926;1684236291.3552618;[0.0, 0.0, 0.0, 0.0, 0.0, 0.0, 0.0, 0.0, 0.0, 0.0, 0.0, 0.0, 0.0, 0.0, 0.0, 0.0, 0.0, 0.0, 0.0, 0.0, 0.0, 0.0, 0.0, 0.0, 0.0, 0.0, 0.0, 0.0, 0.0, 0.0, -0.65197414, -1.3606416, -2.3527763, -3.2031772, -3.6283777, -3.911845, -4.166965, -4.2803516, -4.478779, -4.620512, -4.847286, -5.1591, -5.300833, -5.4992604, -5.5843005, -5.6409936, -5.7260337, -5.75438, -5.782727, -5.811074, -5.811074, -5.8394203, -5.924461, -6.0095005, -6.0661945, -6.094541, -6.1228876, -6.151234, -6.151234, -6.1795807, -6.1795807, -6.1795807, -6.1795807, -6.1795807, -6.1795807, -6.1795807, -6.151234, -6.1228876, -6.094541, -6.0661945, -6.037847, -6.0095005, -6.0095005, -5.981154, -5.981154, -5.981154, -5.981154, -5.981154, -5.981154, -5.981154, -5.981154, -5.981154, -5.981154];[0.0, 0.0, 0.0, 0.0, 0.0, 0.0, 0.0, 0.0, 0.0, 0.0, 0.0, 0.0, 0.0, 0.0, 0.0, 0.0, 0.0, 0.0, 0.0, 0.0, 0.0, 0.0, 0.0, 0.0, 0.0, 0.0, 0.0, 0.0, 0.0, 0.0, -0.19842692, -0.56693405, -1.1905615, -1.9275757, -2.3244295, -2.57955, -2.8063235, -2.9197102, -3.0897903, -3.2315238, -3.4016042, -3.5433376, -3.6283777, -3.7417645, -3.770111, -3.798458, -3.8268046, -3.8268046, -3.8551514, -3.8834982, -3.8834982, -3.8834982, -3.911845, -3.911845, -3.9401915, -3.9401915, -3.9401915, -3.9401915, -3.9401915, -3.9401915, -3.9401915, -3.9401915, -3.9401915, -3.9401915, -3.9401915, -3.911845, -3.911845, -3.8834982, -3.8551514, -3.8268046, -3.8268046, -3.8268046, -3.8268046, -3.8268046, -3.8268046, -3.8268046, -3.8268046, -3.8268046, -3.8268046, -3.8268046, -3.8268046, -3.8268046, -3.8268046];[0.003902800031937659, 0.01734240003861487, 0.03384429996367544, 0.05017770000267774, 0.06751800002530217, 0.08342070004437119, 0.0997254999820143, 0.1171563999960199, 0.13448660005815327, 0.14950279996264726, 0.16754429996944964, 0.18340950005222112, 0.1998477999586612, 0.2158783000195399, 0.23480069998186082, 0.2506177000468597, 0.2685790000250563, 0.2844857999589294, 0.3016143999993801, 0.31752649997361004, 0.3353429000126198, 0.35069949994795024, 0.3683850000379607, 0.3846128999721259, 0.4039119000080973, 0.41787400003522635, 0.4352147999452427, 0.4502688000211492, 0.4669175000162795, 0.48205510003026575, 0.5005153999663889, 0.5162770999595523, 0.5332983999978751, 0.5492513000499457, 0.5673240999458358, 0.5832448999863118, 0.5992843999993056, 0.6162788999499753, 0.6337081999517977, 0.6509846999542788, 0.6676542999921367, 0.6833144000265747, 0.7002214000094682, 0.7172161999624223, 0.7336345999501646, 0.7500317000085488, 0.768057300010696, 0.7824021000415087, 0.8009205999551341, 0.8165249000303447, 0.8335068000014871, 0.8490417000139132, 0.8663323000073433, 0.8851586000528187, 0.8990986000280827, 0.9159842999652028, 0.9341889000497758, 0.9501961000496522, 0.9672982000047341, 0.9840160999447107, 1.0020272999536246, 1.0173144000582397, 1.0347403000341728, 1.0495488999877125, 1.0662399999564514, 1.0836881999857724, 1.1001965999603271, 1.1163255999563262, 1.1337706999620423, 1.151277199969627, 1.167519100010395, 1.1827918000053614, 1.199969599954784, 1.2166771000484005, 1.2337876999517903, 1.2501581000396982, 1.2675546000245959, 1.2845003999536857, 1.3024092999985442, 1.318130600033328, 1.3346512999851257, 1.3507448999444023, 1.3679119000444189]
pilot6blocks;15;3;0;1;False;1000;True;;8;172.96098044466692;drag;L;-6.7181687;1.2472548;0;169.48;6.83;1.3833543000509962;1.3834290000377223;1684236292.1534145;1684236292.1687303;1684236292.9258885;1684236293.424622;1684236294.4058316;1684236295.7897003;[0.0, 0.0, 0.0, 0.0, 0.0, 0.0, 0.0, 0.0, 0.0, 0.0, 0.0, 0.0, 0.0, 0.0, 0.0, 0.0, 0.0, 0.0, 0.0, 0.0, 0.0, 0.0, 0.0, 0.0, 0.0, 0.0, -0.96378785, -2.9197102, -4.3086987, -5.41422, -5.811074, -5.981154, -6.037847, -6.0661945, -6.0661945, -6.094541, -6.094541, -6.094541, -6.1228876, -6.151234, -6.151234, -6.151234, -6.2079277, -6.321315, -6.7465153, -6.944942, -7.029982, -7.086675, -7.1150217, -7.1717157, -7.2000623, -7.228409, -7.228409, -7.228409, -7.228409, -7.228409, -7.2000623, -7.1717157, -7.143369, -7.086675, -7.086675, -7.029982, -7.029982, -6.944942, -6.888248, -6.8599014, -6.831555, -6.774862, -6.774862, -6.7465153, -6.7465153, -6.7181687, -6.7181687, -6.7181687, -6.7181687, -6.7181687, -6.7181687, -6.7181687, -6.7181687, -6.7181687, -6.7181687, -6.7181687, -6.7181687];[0.0, 0.0, 0.0, 0.0, 0.0, 0.0, 0.0, 0.0, 0.0, 0.0, 0.0, 0.0, 0.0, 0.0, 0.0, 0.0, 0.0, 0.0, 0.0, 0.0, 0.0, 0.0, 0.0, 0.0, 0.0, 0.0, 0.0, 0.0566934, 0.4535472, 1.417335, 1.984269, 2.211043, 2.2393894, 2.2393894, 2.2677362, 2.2960827, 2.2960827, 2.2960827, 2.2960827, 2.2960827, 2.2960827, 2.2960827, 2.2960827, 2.2677362, 2.0976558, 2.0409625, 2.012616, 1.984269, 1.9275757, 1.8141888, 1.7574955, 1.6724553, 1.6157619, 1.5874153, 1.5590686, 1.5307219, 1.5023751, 1.4740285, 1.417335, 1.3889884, 1.3889884, 1.3606416, 1.3606416, 1.332295, 1.332295, 1.3039483, 1.2756016, 1.2756016, 1.2472548, 1.2472548, 1.2472548, 1.2472548, 1.2472548, 1.2472548, 1.2472548, 1.2472548, 1.2472548, 1.2472548, 1.2472548, 1.2472548, 1.2472548, 1.2472548, 1.2472548];[0.0037416000850498676, 0.018937000073492527, 0.03460590005852282, 0.05375840002670884, 0.06795880000572652, 0.0853994000935927, 0.10166460007894784, 0.11874710000120103, 0.1345271000172943, 0.1541652000742033, 0.16763250005897135, 0.18909980007447302, 0.2008776000002399, 0.22099770000204444, 0.2344573000445962, 0.25148400000762194, 0.26812250004149973, 0.2872375000733882, 0.3009813000680879, 0.31861710001248866, 0.3343643000116572, 0.3532948000356555, 0.3690576000371948, 0.38550900004338473, 0.40087790007237345, 0.4192196000367403, 0.4342220000689849, 0.4516346000600606, 0.4682946000248194, 0.48445920005906373, 0.5011862000683323, 0.5179074000334367, 0.5341909000417218, 0.5513389999978244, 0.5681515000760555, 0.5851442000130191, 0.6010851000901312, 0.618097500060685, 0.6343467000406235, 0.6510986000066623, 0.6668387000681832, 0.6847883000737056, 0.7010795000242069, 0.7192006000550464, 0.7356906000059098, 0.7512032000813633, 0.7676281000021845, 0.7858616000739858, 0.8006293000653386, 0.819800200057216, 0.8342414000071585, 0.8516740000341088, 0.869105700054206, 0.8844380000373349, 0.900786800077185, 0.9180884000379592, 0.9336114000761881, 0.9525720000965521, 0.9678463001037017, 0.9848728000652045, 1.0003589000552893, 1.0174808000447229, 1.0341042000800371, 1.0527404000749812, 1.0667654999997467, 1.0868671000935137, 1.1001150000374764, 1.1184512000763789, 1.1340088000288233, 1.1510443000588566, 1.1675217000301927, 1.1842926000244915, 1.200470200041309, 1.2175087000941858, 1.2343472000211477, 1.2517788000404835, 1.2677714000456035, 1.2852577000157908, 1.3014770000008866, 1.317748500034213, 1.3332804000237957, 1.3514262000098825, 1.3664662000956014]
pilot6blocks;16;3;0;1;False;3000;True;;8;90.90431560161035;drag;L;-0.2267736;6.831555;0;91.9;6.84;1.548166900058277;1.5482926999684423;1684236296.5430758;1684236296.5521033;1684236297.3082616;1684236297.808043;1684236300.8072493;1684236302.3554852;[0.0, 0.0, 0.0, 0.0, 0.0, 0.0, 0.0, 0.0, 0.0, 0.0, 0.0, 0.0, 0.0, 0.0, 0.0, 0.0, 0.0, 0.0, 0.0, 0.0, 0.0, 0.0, 0.0, 0.0, 0.0, 0.0, 0.0, -0.0566934, -0.0566934, -0.0283467, 0.0283467, 0.0283467, 0.0850401, 0.1133868, 0.14173351, 0.1700802, 0.19842692, 0.19842692, 0.19842692, 0.19842692, 0.19842692, 0.19842692, 0.1700802, 0.14173351, 0.14173351, 0.1133868, 0.0566934, 0.0283467, -0.0283467, -0.0850401, -0.0850401, -0.1133868, -0.1133868, -0.14173351, -0.14173351, -0.14173351, -0.14173351, -0.14173351, -0.14173351, -0.14173351, -0.14173351, -0.14173351, -0.1700802, -0.1700802, -0.1700802, -0.19842692, -0.19842692, -0.19842692, -0.19842692, -0.19842692, -0.19842692, -0.19842692, -0.19842692, -0.19842692, -0.2267736, -0.2267736, -0.2267736, -0.2267736, -0.2267736, -0.2267736, -0.2267736, -0.2267736, -0.2267736, -0.2267736, -0.2267736, -0.2267736, -0.2267736, -0.2267736, -0.2267736, -0.2267736, -0.2267736, -0.2267736, -0.2267736];[0.0, 0.0, 0.0, 0.0, 0.0, 0.0, 0.0, 0.0, 0.0, 0.0, 0.0, 0.0, 0.0, 0.0, 0.0, 0.0, 0.0, 0.0, 0.0, 0.0, 0.0, 0.0, 0.0, 0.0, 0.0, 0.0, 1.3606416, 2.6929367, 3.4299507, 3.8551514, 4.166965, 4.2803516, 4.5071254, 4.620512, 4.733899, 5.017366, 5.1591, 5.32918, 5.4425664, 5.5559535, 5.5843005, 5.612647, 5.612647, 5.66934, 5.7260337, 5.811074, 6.037847, 6.2079277, 6.4063544, 6.491395, 6.548088, 6.6047816, 6.633128, 6.633128, 6.6614747, 6.6898212, 6.6898212, 6.6898212, 6.6898212, 6.7181687, 6.7181687, 6.7181687, 6.7181687, 6.7181687, 6.7181687, 6.7465153, 6.7465153, 6.774862, 6.8032084, 6.8032084, 6.831555, 6.831555, 6.831555, 6.831555, 6.831555, 6.831555, 6.831555, 6.831555, 6.831555, 6.831555, 6.831555, 6.831555, 6.831555, 6.831555, 6.831555, 6.831555, 6.831555, 6.831555, 6.831555, 6.831555, 6.831555, 6.831555, 6.831555];[0.0037944000214338303, 0.016706099966540933, 0.03499499999452382, 0.050309899961575866, 0.06731680000666529, 0.08423869998659939, 0.10061419999692589, 0.11774520005565137, 0.13470100006088614, 0.15075779997278005, 0.167864799965173, 0.18446390004828572, 0.20119839999824762, 0.2176937999902293, 0.23655340005643666, 0.24982739996630698, 0.2686294000595808, 0.2843978999881074, 0.30039580003358424, 0.3160428999690339, 0.33455639996100217, 0.3487781999865547, 0.3661243000533432, 0.3838590000523254, 0.39950219995807856, 0.415337200043723, 0.4355540999677032, 0.4495013999985531, 0.46641770005226135, 0.48257490003015846, 0.49938419996760786, 0.5159452999942005, 0.532105699996464, 0.5486330999992788, 0.566712100058794, 0.5821574999717996, 0.5992756000487134, 0.6160739000188187, 0.6341442000120878, 0.6520887999795377, 0.6669391000177711, 0.6819579000584781, 0.7005698999855667, 0.7156837000511587, 0.7332518000621349, 0.7492058000061661, 0.7656457000412047, 0.7835736999986693, 0.7995394000317901, 0.8157372999703512, 0.833771700039506, 0.8490692999912426, 0.8661127999657765, 0.882395299966447, 0.9004868000047281, 0.9175952000077814, 0.9336750999791548, 0.9503863999852911, 0.9667913999874145, 0.98267209995538, 0.9994986000237986, 1.0155343000078574, 1.0341192999621853, 1.0505356000503525, 1.0668785000452772, 1.0835551000200212, 1.0999880000017583, 1.1160017000511289, 1.1348705999553204, 1.1488733000587672, 1.1660573000553995, 1.1830171999754384, 1.2003692999714985, 1.2170938999624923, 1.2336383999790996, 1.2491203000536188, 1.2669164000544697, 1.282589399954304, 1.3012522000353783, 1.3166794000426307, 1.3338416999904439, 1.3493539000628516, 1.3673935000551865, 1.3826918000122532, 1.400681099970825, 1.416645299992524, 1.4347001999849454, 1.4496401000069454, 1.4677982999710366, 1.4836712999967858, 1.5003345999866724, 1.5160814999835566, 1.533445999957621]
