subj;trial;block;prior;kappa;ct;delay;fix;keypressed;R;T_Angle;resp_mod;choice_x;choice_y;init_resp_angle;choiceAngle;choiceR;RT;MT;ts_b;ts_f;ts_p;ts_d;ts_r;ts_e;m_pos_x;m_pos_y;m_clock
pilot_s;0;0;0;1;False;3000;False;;8;95.71384065869285;eye;L;nan;nan;0;nan;nan;0.006023599999025464;0.006127399974502623;1683803648.2501557;1683803648.2681568;1683803649.0230143;1683803649.5085597;1683803649.5105524;1683803649.5158165;[];[];[]
pilot_s;0;0;0;1;False;3000;True;;8;-160.7131210183248;eye;L;-5.081389844417572;-2.153630241751671;0;-157.03;5.52;1.814380900003016;1.8145037000067532;1683803650.0963187;1683803650.1019363;1683803650.8575096;1683803651.3589635;1683803654.3572857;1683803656.1723695;[];[];[]
pilot_s;1;0;0;1;False;1000;True;;8;-49.644512161189944;eye;L;4.989155471324921;-4.347484298050404;0;-41.07;6.62;0.9658966999268159;0.9659736000467092;1683803656.9458044;1683803656.9509149;1683803657.7048256;1683803658.2087271;1683803659.189482;1683803660.1554484;[];[];[]
pilot_s;2;0;0;1;False;3000;True;;8;117.95152381858102;eye;L;-3.781879961490631;6.148969903215765;0;121.59;7.22;0.8025009999983013;0.8025564999552444;1683803660.9586155;1683803660.968719;1683803661.723901;1683803662.2220082;1683803665.222102;1683803666.0250359;[];[];[]
pilot_s;3;0;0;1;False;1000;True;;8;22.9920926339006;eye;L;6.940538048744202;2.925231608748436;0;22.85;7.53;0.9498391000088304;0.9499092000769451;1683803666.6963038;1683803666.700712;1683803667.4548855;1683803667.9589405;1683803668.9384413;1683803669.8888407;[];[];[]
pilot_s;4;0;0;1;False;3000;True;;8;156.8323405478033;eye;L;-6.852030128240585;3.509274588525295;0;152.88;7.7;0.8154129000613466;0.8155191999394447;1683803670.7395463;1683803670.75164;1683803671.5051916;1683803672.0066404;1683803675.005699;1683803675.8210092;[];[];[]
pilot_s;5;0;0;1;False;1000;True;;8;-140.49430897404446;eye;L;-4.6639524102211;-2.6451045557856556;0;-150.44;5.36;1.068711100029759;1.0687668999889866;1683803676.517274;1683803676.5342755;1683803677.2887642;1683803677.7891831;1683803678.7701867;1683803679.8391297;[];[];[]
pilot_s;6;0;0;1;False;1000;True;;8;35.773498467226666;eye;L;5.750975787639618;4.60613070577383;0;38.69;7.37;0.7171720999758691;0.7172479999717325;1683803680.593308;1683803680.60045;1683803681.3557796;1683803681.8566973;1683803682.8382392;1683803683.555383;[];[];[]
pilot_s;7;0;0;1;False;3000;True;;8;57.93945022532487;eye;L;4.421286225318909;7.410970417410135;0;59.18;8.63;1.030681199976243;1.0307521999347955;1683803684.3656328;1683803684.3835983;1683803685.1399684;1683803685.638762;1683803688.63785;1683803689.6689537;[];[];[]
pilot_s;8;0;0;1;False;1000;True;;8;157.7744629273613;eye;L;-7.141501486301422;3.6204174980521198;0;153.12;8.01;1.0997791999252513;1.0998579000588506;1683803690.694033;1683803690.7000332;1683803691.4540217;1683803691.956445;1683803692.9373107;1683803694.0368366;[];[];[]
pilot_s;9;0;0;1;False;3000;True;;8;86.10952492582084;eye;L;-0.15196123719215393;7.10123774819076;0;91.23;7.1;1.2312170999357477;1.231489700032398;1683803694.7059407;1683803694.716669;1683803695.4717317;1683803695.9730873;1683803698.9711003;1683803700.2031732;[];[];[]
pilot_s;0;1;0;1;False;1000;False;;8;97.79683208058148;eye;L;nan;nan;0;nan;nan;0.0022719999542459846;0.002351099974475801;1683803707.5592332;1683803707.566236;1683803708.3042831;1683803708.3046882;1683803708.3051567;1683803708.3073325;[];[];[]
pilot_s;0;1;0;1;False;1000;True;;8;121.91850934206126;eye;L;-3.4505971372127533;6.0313596043735735;0;119.77;6.95;1.0486739000771195;1.0487514999695122;1683803708.8763483;1683803708.8825517;1683803709.6381896;1683803710.1395998;1683803711.1194563;1683803712.1686609;[];[];[]
pilot_s;1;1;0;1;False;3000;True;;8;16.171993282003047;eye;L;10.398400664329529;1.4720179595053196;0;8.06;10.5;0.6998786000767723;0.6999323000200093;1683803713.0394304;1683803713.048679;1683803713.8040848;1683803714.3035786;1683803717.302573;1683803718.0023215;[];[];[]
pilot_s;2;1;0;1;False;3000;True;;8;153.4631409292894;eye;L;-7.097983926534653;3.631893403083086;0;152.9;7.97;1.30330969998613;1.3033487000502646;1683803718.843069;1683803718.848416;1683803719.6026428;1683803720.1033108;1683803723.1003935;1683803724.4030967;[];[];[]
pilot_s;3;1;0;1;False;1000;True;;8;121.40911905840281;eye;L;-3.7172732055187225;5.916203453019261;0;122.14;6.99;0.7836014000931755;0.7836635999847203;1683803725.066472;1683803725.0821555;1683803725.8365657;1683803726.3381047;1683803727.3182955;1683803728.1016266;[];[];[]
pilot_s;4;1;0;1;False;3000;True;;8;36.02180249156592;eye;L;8.199900090694427;5.88495364934206;0;35.67;10.09;0.781758000026457;0.7818273999728262;1683803728.9556532;1683803728.964683;1683803729.7179234;1683803730.2206295;1683803733.2191374;1683803734.0007753;[];[];[]
pilot_s;5;1;0;1;False;1000;False;;8;116.82290859596324;eye;L;nan;nan;0;nan;nan;0.002156500006094575;0.0022619999945163727;1683803734.778233;1683803734.7975762;1683803735.5517354;1683803736.0535166;1683803737.021314;1683803737.023311;[];[];[]
pilot_s;5;1;0;1;False;1000;True;;8;75.97306224087278;eye;L;2.4545618295669556;7.102908093854785;0;70.94;7.52;0.9350565999047831;0.9351163000101224;1683803737.5871246;1683803737.5975935;1683803738.3523734;1683803738.8528564;1683803739.8341396;1683803740.7694345;[];[];[]
pilot_s;6;1;0;1;False;1000;True;;8;-2.1966205481067025;eye;L;9.090194404125214;-0.47607813924551007;0;-3.0;9.1;0.7470397000433877;0.747155399993062;1683803741.505923;1683803741.5134635;1683803742.268611;1683803742.7697198;1683803743.7520785;1683803744.4992876;[];[];[]
pilot_s;7;1;0;1;False;3000;True;;8;-159.7331429257042;eye;L;-6.881566554307938;-2.694643226265907;0;-158.62;7.39;1.5321445999434218;1.5322451000101864;1683803745.2488303;1683803745.2648313;1683803746.018382;1683803746.5205765;1683803749.519208;1683803751.051346;[];[];[]
pilot_s;8;1;0;1;False;3000;True;;8;-66.03840191834361;eye;L;4.251176297664642;-5.843580763041973;0;-53.96;7.23;0.9818331999704242;0.9819037999259308;1683803751.9127913;1683803751.9297106;1683803752.6845033;1683803753.1858733;1683803756.1840641;1683803757.166059;[];[];[]
pilot_s;9;1;0;1;False;1000;True;;8;109.7473104133028;eye;L;-3.277448743581772;6.340090066194534;0;117.34;7.14;0.9161104999948293;0.916179700056091;1683803758.0184813;1683803758.0301878;1683803758.7845323;1683803759.285009;1683803760.266592;1683803761.1832066;[];[];[]
pilot_s;0;2;0;1;False;1000;True;;8;-166.19087106994573;eye;L;-6.777872532606125;-2.143274728953838;0;-162.45;7.11;2.216915199998766;2.217009500018321;1683803766.3095286;1683803766.3305357;1683803767.0847247;1683803767.584407;1683803768.5665312;1683803770.7836275;[];[];[]
pilot_s;1;2;0;1;False;3000;True;;8;-76.28326836536664;eye;L;3.3668252825737;-6.367723256349564;0;-62.13;7.2;1.6332973000826314;1.6333912999834865;1683803771.636338;1683803771.6463764;1683803772.3995845;1683803772.900995;1683803775.901005;1683803777.5344436;[];[];[]
pilot_s;2;2;0;1;False;1000;True;;8;125.3830954326827;eye;L;-4.655742436647415;6.5906364005059;0;125.24;8.07;1.4323831999208778;1.4324405000079423;1683803778.2456787;1683803778.2611556;1683803779.015871;1683803779.5179412;1683803780.4996214;1683803781.9319026;[];[];[]
pilot_s;3;2;0;1;False;3000;True;;8;82.54907947742151;eye;L;0.7111256122589111;6.4765922896564;0;83.73;6.52;0.9999100000131875;0.9999926999444142;1683803782.8755474;1683803782.8945408;1683803783.6512365;1683803784.150464;1683803787.149981;1683803788.1501064;[];[];[]
pilot_s;4;2;0;1;False;1000;True;;8;-115.14962191739015;eye;L;-3.3105949759483337;-6.229786741733551;0;-117.99;7.05;2.2496828000294045;2.249939800007269;1683803788.8235016;1683803788.8285048;1683803789.5833952;1683803790.0834532;1683803791.0650182;1683803793.315238;[];[];[]
pilot_s;5;2;0;1;False;3000;True;;8;-19.048014766761426;eye;L;8.041295111179352;-2.957104955613613;0;-20.19;8.57;0.7001184999244288;0.7001944000367075;1683803794.1128323;1683803794.1278586;1683803794.8833723;1683803795.3847103;1683803798.382876;1683803799.0825684;[];[];[]
pilot_s;6;2;0;1;False;1000;True;;8;-172.35811914626734;eye;L;-5.595903605222702;-1.3978183686733245;0;-165.97;5.77;1.7175697999773547;1.717657099943608;1683803799.854023;1683803799.8609395;1683803800.6156693;1683803801.1171842;1683803802.098064;1683803803.8156307;[];[];[]
pilot_s;7;2;0;1;False;3000;True;;8;-80.4966191439194;eye;L;2.517478346824646;-7.15609174221754;0;-70.62;7.59;0.9644803999690339;0.9645969999255612;1683803804.6618304;1683803804.676934;1683803805.4329875;1683803805.9326997;1683803808.9335372;1683803809.8973553;[];[];[]
pilot_s;8;2;0;1;False;1000;False;;8;151.83991756777388;eye;L;nan;nan;0;nan;nan;0.002037900034338236;0.0021087999921292067;1683803810.6229327;1683803810.6268482;1683803811.364699;1683803811.3657196;1683803811.366722;1683803811.3688834;[];[];[]
pilot_s;8;2;0;1;False;1000;True;;8;55.82693796101214;eye;L;4.00863242149353;7.025398382171988;0;60.29;8.09;0.9835894999559969;0.9836658999556676;1683803811.9333923;1683803811.9434452;1683803812.6981435;1683803813.199321;1683803814.1813412;1683803815.1641803;[];[];[]
pilot_s;9;2;0;1;False;3000;False;;8;172.22179858030793;eye;L;nan;nan;0;nan;nan;0.002059200080111623;0.0021265000104904175;1683803817.2256804;1683803817.2436893;1683803817.982783;1683803817.982783;1683803817.9837348;1683803817.9857457;[];[];[]
pilot_s;9;2;0;1;False;3000;True;;8;-8.781628802963892;eye;L;9.122137367725372;-2.0850225269794462;0;-12.87;9.36;1.864356299978681;1.8644394999137148;1683803818.548895;1683803818.560512;1683803819.313515;1683803819.8168936;1683803822.8145082;1683803824.679375;[];[];[]
pilot_s;0;3;0;1;False;3000;True;;8;99.25983759770243;eye;L;-1.5333256721496582;7.330973308905959;0;101.81;7.49;1.2499294000444934;1.2499664999777451;1683803838.1395495;1683803838.1586454;1683803838.9135494;1683803839.4156814;1683803842.4113438;1683803843.6614752;[];[];[]
pilot_s;1;3;0;1;False;1000;True;;8;137.08707476526848;eye;L;-5.461886078119278;5.7223146133124825;0;133.67;7.91;0.8983126000966877;0.8983907999936491;1683803844.7223341;1683803844.742332;1683803845.4975493;1683803845.998987;1683803846.9795012;1683803847.8782754;[];[];[]
pilot_s;2;3;0;1;False;1000;True;;8;139.07698937191063;eye;L;-5.128426045179367;4.5445299334824085;0;138.45;6.85;0.8322662999853492;0.8323366000549868;1683803848.5564544;1683803848.5752635;1683803849.3309288;1683803849.8318186;1683803850.8119123;1683803851.644754;[];[];[]
pilot_s;3;3;0;1;False;3000;False;;8;106.09520783465477;eye;L;nan;nan;0;nan;nan;0.0019733000081032515;0.002033500000834465;1683803852.4656796;1683803852.4750476;1683803853.211169;1683803853.2121782;1683803853.2121782;1683803853.2141676;[];[];[]
pilot_s;3;3;0;1;False;3000;True;;8;162.7236312498437;eye;L;-6.6180218160152435;2.884367074817419;0;156.45;7.22;0.6476801000535488;0.6477337999967858;1683803853.7803338;1683803853.79247;1683803854.5459747;1683803855.0482943;1683803858.0465164;1683803858.6947856;[];[];[]
pilot_s;4;3;0;1;False;3000;True;;8;149.73674650957432;eye;L;-6.492978125810623;4.578594584763049;0;144.81;7.94;0.8168583000078797;0.8169568000594154;1683803859.5355418;1683803859.542197;1683803860.2965834;1683803860.7971916;1683803863.7954736;1683803864.6128;[];[];[]
pilot_s;5;3;0;1;False;1000;True;;8;144.6512531652691;eye;L;-5.503015786409378;5.726493786647915;0;133.86;7.94;0.6668037000345066;0.6669009999604896;1683803865.382838;1683803865.391445;1683803866.1453214;1683803866.6469219;1683803867.6280198;1683803868.2958105;[];[];[]
pilot_s;6;3;0;1;False;3000;True;;8;75.32821422491189;eye;L;1.8340171575546265;8.684245528466999;0;78.07;8.88;0.7809488999191672;0.781342800008133;1683803869.0516777;1683803869.0584424;1683803869.8127117;1683803870.3131785;1683803873.3123548;1683803874.0936773;[];[];[]
pilot_s;7;3;0;1;False;1000;True;;8;-38.16249293905213;eye;L;6.759958267211914;-4.629910124838352;0;-34.41;8.19;1.1985370999900624;1.1988840999547392;1683803874.9159532;1683803874.9237647;1683803875.6787658;1683803876.180039;1683803877.1609857;1683803878.3596866;[];[];[]
pilot_s;8;3;0;1;False;1000;True;;8;-169.45667995634778;eye;L;-7.467749267816544;-1.8536014929413793;0;-166.06;7.69;1.2181303999386728;1.2181841999990866;1683803879.1310208;1683803879.1404083;1683803879.8943145;1683803880.3944926;1683803881.3773336;1683803882.5955188;[];[];[]
pilot_s;9;3;0;1;False;3000;True;;8;163.9842003655013;eye;L;-7.279048413038254;1.8824587628245353;0;165.5;7.52;0.6810117999557406;0.6811290999175981;1683803883.3780224;1683803883.3904176;1683803884.1447146;1683803884.6460118;1683803887.6452234;1683803888.3260636;[];[];[]
pilot_s;0;4;0;1;False;3000;True;;8;82.40032157816722;eye;L;-0.35630232095718384;7.551668438874184;0;92.7;7.56;0.7639781000325456;0.7641132998978719;1683803891.8058178;1683803891.8228126;1683803892.577972;1683803893.0794806;1683803896.0789206;1683803896.843326;[];[];[]
pilot_s;1;4;0;1;False;1000;True;;8;116.99361174043135;eye;L;-3.7122902572155;7.373857227712869;0;116.72;8.26;0.8000391999958083;0.8001051999162883;1683803897.6572385;1683803897.6724112;1683803898.427464;1683803898.9286153;1683803899.9096956;1683803900.710428;[];[];[]
pilot_s;2;4;0;1;False;3000;True;;8;96.77312354142556;eye;L;-1.8639731705188751;9.466403204295784;0;101.14;9.65;1.4143147999420762;1.4144051000475883;1683803901.5308506;1683803901.5389302;1683803902.2915876;1683803902.792371;1683803905.7940292;1683803907.209019;[];[];[]
pilot_s;3;4;0;1;False;1000;True;;8;-178.92146367852772;eye;L;-6.444282829761505;0.6094568163156509;0;174.6;6.47;1.1168382000178099;1.116912900004536;1683803908.0266216;1683803908.039634;1683803908.7943761;1683803909.294588;1683803910.276487;1683803911.3933818;[];[];[]
pilot_s;4;4;0;1;False;3000;True;;8;159.56907470036225;eye;L;-6.430817544460297;4.718892274796962;0;143.73;7.98;0.7995944999856874;0.7996585000073537;1683803912.2353156;1683803912.2559383;1683803913.01046;1683803913.5122745;1683803916.509106;1683803917.3090508;[];[];[]
pilot_s;5;4;0;1;False;1000;True;;8;-98.08302760858737;eye;L;0.952667236328125;-6.403472435474395;0;-81.54;6.47;1.0666932000312954;1.066747899982147;1683803918.0389965;1683803918.0550222;1683803918.8103068;1683803919.3106887;1683803920.2920022;1683803921.3590827;[];[];[]
pilot_s;6;4;0;1;False;3000;True;;8;-145.05416712581928;eye;L;-5.491890221834183;-5.549671152234077;0;-134.7;7.81;1.1316918999655172;1.131762099917978;1683803922.0264375;1683803922.0386238;1683803922.7922912;1683803923.2931843;1683803926.2921813;1683803927.424114;[];[];[]
pilot_s;7;4;0;1;False;1000;True;;8;85.34256237144012;eye;L;1.044581115245819;8.451245742011814;0;82.95;8.52;0.9648093999130651;0.964904100052081;1683803928.1471763;1683803928.1540766;1683803928.9085393;1683803929.4086323;1683803930.3921049;1683803931.356506;[];[];[]
pilot_s;8;4;0;1;False;1000;True;;8;-96.18522928561036;eye;L;0.027551740407943726;-6.686590982973575;0;-89.76;6.69;1.2505632999818772;1.2508625000482425;1683803932.17409;1683803932.1885653;1683803932.9419377;1683803933.442749;1683803934.4254487;1683803935.676933;[];[];[]
pilot_s;9;4;0;1;False;3000;True;;8;-179.7164703257709;eye;L;-7.890088677406311;0.996852522343397;0;172.8;7.95;0.7995562999276444;0.799735700013116;1683803936.4976819;1683803936.50388;1683803937.2579172;1683803937.7583203;1683803940.7590978;1683803941.558987;[];[];[]
pilot_s;0;5;0;1;False;1000;True;;8;-85.24656584979492;drag;L;0.7086675;-7.795343;0;-84.81;7.83;1.5183983000461012;1.5184757999377325;1683803946.4944468;1683803946.5034654;1683803947.2579908;1683803947.758694;1683803948.7411616;1683803950.259157;[0.0, 0.0, 0.0, 0.0, 0.0, 0.0, 0.0, 0.0, 0.0, 0.0, 0.0, 0.0, 0.0, 0.0, 0.0, 0.0, 0.0, 0.0, 0.0, 0.0, 0.0, 0.0, 0.0, 0.0, 0.0, 0.0, 0.0, 0.0, 0.0, 0.0, 0.0, 0.0, 0.0, 0.0, 0.0, 0.1700802, 0.2551203, 0.3401604, 0.36850712, 0.36850712, 0.36850712, 0.3401604, 0.3118137, 0.3118137, 0.3118137, 0.3118137, 0.3118137, 0.42520052, 0.48189393, 0.53858733, 0.53858733, 0.53858733, 0.53858733, 0.53858733, 0.53858733, 0.56693405, 0.56693405, 0.56693405, 0.56693405, 0.56693405, 0.56693405, 0.56693405, 0.56693405, 0.56693405, 0.56693405, 0.56693405, 0.56693405, 0.56693405, 0.56693405, 0.56693405, 0.56693405, 0.56693405, 0.59528077, 0.59528077, 0.65197414, 0.65197414, 0.6803208, 0.7086675, 0.7086675, 0.7086675, 0.7086675, 0.7086675, 0.7086675, 0.7086675, 0.7086675, 0.7086675, 0.7086675, 0.7086675, 0.7086675, 0.7086675, 0.7086675];[0.0, 0.0, 0.0, 0.0, 0.0, 0.0, 0.0, 0.0, 0.0, 0.0, 0.0, 0.0, 0.0, 0.0, 0.0, 0.0, 0.0, 0.0, 0.0, 0.0, 0.0, 0.0, 0.0, 0.0, 0.0, 0.0, 0.0, 0.0, 0.0, 0.0, 0.0, 0.0, 0.0, 0.0, -0.59528077, -2.1260026, -2.9197102, -3.6850712, -4.3086987, -4.6772056, -4.960673, -5.2441397, -5.41422, -5.612647, -5.811074, -6.151234, -6.3496614, -6.944942, -7.341796, -7.596916, -7.6252627, -7.710303, -7.7386494, -7.795343, -7.82369, -7.9087296, -7.99377, -8.07881, -8.24889, -8.277237, -8.390623, -8.447317, -8.50401, -8.560703, -8.58905, -8.617397, -8.617397, -8.617397, -8.560703, -8.50401, -8.475664, -8.390623, -8.305584, -8.192197, -8.07881, -8.022117, -7.9654226, -7.9087296, -7.8520365, -7.8520365, -7.82369, -7.82369, -7.82369, -7.795343, -7.795343, -7.795343, -7.795343, -7.795343, -7.795343, -7.795343, -7.795343];[0.005347799975425005, 0.018264799960888922, 0.03389479999896139, 0.052022599964402616, 0.06799749995116144, 0.08527799998410046, 0.10098779993131757, 0.11920019995886832, 0.13398899999447167, 0.1519897999241948, 0.16752419993281364, 0.18553409993182868, 0.2011828999966383, 0.21764229994732887, 0.23411309998482466, 0.25264570000581443, 0.2677018999820575, 0.2867201999761164, 0.300666099996306, 0.3187100999057293, 0.3350286999484524, 0.3523526999633759, 0.3679058999987319, 0.38603839999996126, 0.4013969999505207, 0.4183847999665886, 0.43436049995943904, 0.452654599910602, 0.46844929992221296, 0.48530389997176826, 0.5007904999656603, 0.51809109991882, 0.5339495999505743, 0.5509461999172345, 0.5683839999837801, 0.587014599936083, 0.6011726999422535, 0.6184316999278963, 0.6352066999534145, 0.6513574999989942, 0.668002099962905, 0.6867092999164015, 0.7022268999135122, 0.7188107999972999, 0.7345048999413848, 0.754674999974668, 0.7672337999101728, 0.7850355999544263, 0.8007895000046119, 0.8202184999827296, 0.8362546999705955, 0.8523547999793664, 0.8684810999548063, 0.8843633999349549, 0.9013395999791101, 0.9185299999080598, 0.9337615999393165, 0.9526872999267653, 0.969890599953942, 0.9841758999973536, 1.0001057999907061, 1.0192985999165103, 1.032672300003469, 1.0526517999824136, 1.066996599896811, 1.0865564999403432, 1.100458399974741, 1.1183577999472618, 1.1342169999843463, 1.1533988999435678, 1.1669634999707341, 1.1834411999443546, 1.1998665999853984, 1.217034799978137, 1.2372310999780893, 1.2519353999523446, 1.27031429996714, 1.284239099943079, 1.3013975999783725, 1.318283399916254, 1.3353573998901993, 1.3513683999190107, 1.3673412998905405, 1.3881651998963207, 1.4002974999602884, 1.4183533999603242, 1.433021100005135, 1.4514415999874473, 1.4677242999896407, 1.4851420999038965, 1.501291999942623]
pilot_s;1;5;0;1;False;3000;True;;8;-175.63189865294893;drag;L;-7.1717157;-2.8913634;0;-158.04;7.73;1.481408999999985;1.4815207000356168;1683803950.9663978;1683803950.986529;1683803951.7422552;1683803952.2430046;1683803955.242192;1683803956.724126;[0.0, 0.0, 0.0, 0.0, 0.0, 0.0, 0.0, 0.0, 0.0, 0.0, 0.0, 0.0, 0.0, 0.0, 0.0, 0.0, 0.0, 0.0, 0.0, 0.0, 0.0, 0.0, 0.0, 0.0, 0.0, 0.0, 0.0, -0.19842692, -1.3039483, -1.9275757, -2.7779768, -3.2882173, -3.6000311, -3.8834982, -3.996885, -4.081925, -4.166965, -4.2803516, -4.733899, -5.130753, -5.6409936, -5.8677673, -6.0095005, -6.264621, -6.434701, -6.6047816, -6.774862, -6.888248, -6.944942, -7.0583286, -7.3701425, -7.6536093, -8.022117, -8.107157, -8.192197, -8.277237, -8.305584, -8.362277, -8.362277, -8.390623, -8.390623, -8.390623, -8.390623, -8.390623, -8.390623, -8.390623, -8.362277, -8.277237, -8.192197, -8.050464, -7.880383, -7.7386494, -7.5118756, -7.426836, -7.3701425, -7.313449, -7.285102, -7.2567554, -7.228409, -7.228409, -7.2000623, -7.2000623, -7.2000623, -7.2000623, -7.1717157, -7.1717157, -7.1717157, -7.1717157, -7.1717157];[0.0, 0.0, 0.0, 0.0, 0.0, 0.0, 0.0, 0.0, 0.0, 0.0, 0.0, 0.0, 0.0, 0.0, 0.0, 0.0, 0.0, 0.0, 0.0, 0.0, 0.0, 0.0, 0.0, 0.0, 0.0, 0.0, 0.0, -0.0850401, -0.6803208, -0.85040104, -1.0771747, -1.1622148, -1.2472548, -1.2756016, -1.332295, -1.3606416, -1.3889884, -1.4740285, -1.7574955, -2.0409625, -2.2393894, -2.3527763, -2.4094696, -2.4378164, -2.4945097, -2.4945097, -2.5228565, -2.5512033, -2.5512033, -2.57955, -2.6929367, -2.83467, -2.9764037, -2.9764037, -3.0047503, -3.0047503, -3.0047503, -3.0047503, -3.0047503, -3.0047503, -3.0047503, -3.0047503, -3.0047503, -3.0047503, -3.0047503, -3.0047503, -3.0047503, -2.9764037, -2.948057, -2.948057, -2.948057, -2.9197102, -2.8913634, -2.8913634, -2.8913634, -2.8913634, -2.8913634, -2.8913634, -2.8913634, -2.8913634, -2.8913634, -2.8913634, -2.8913634, -2.8913634, -2.8913634, -2.8913634, -2.8913634, -2.8913634, -2.8913634];[0.004107099957764149, 0.01690329995471984, 0.03376689995639026, 0.050545800011605024, 0.06806079996749759, 0.08293909998610616, 0.1013317999895662, 0.11687259993050247, 0.13374620000831783, 0.15034339996054769, 0.1674434000160545, 0.1834227000363171, 0.19934679998550564, 0.21722590003628284, 0.23453959997277707, 0.25016029994003475, 0.26729680004063994, 0.2845493999775499, 0.3003463000059128, 0.3163918999489397, 0.33476839994546026, 0.3499912000261247, 0.3660848999861628, 0.38253089995123446, 0.39920189999975264, 0.4155286999884993, 0.43297379999421537, 0.4488506999332458, 0.4647399999666959, 0.48231390002183616, 0.49880179995670915, 0.5162297999486327, 0.5333576999837533, 0.5487862000009045, 0.5666374999564141, 0.5836140000028536, 0.6011267999419942, 0.6156486000400037, 0.633209399995394, 0.6493017999455333, 0.6684238000307232, 0.6825208000373095, 0.7017582999542356, 0.7161505999974906, 0.7337665000231937, 0.7505007999716327, 0.766252400004305, 0.7823578999377787, 0.8012092999415472, 0.8155664999503642, 0.8325067999539897, 0.8485413999296725, 0.8705438999459147, 0.8829342999961227, 0.8986967999953777, 0.9169342999812216, 0.9315618999535218, 0.9481971999630332, 0.9660132999997586, 0.9823479999322444, 0.9988131000427529, 1.0149496999802068, 1.0319665999850258, 1.048046699957922, 1.0648939999518916, 1.080864500021562, 1.0996607999550179, 1.1154759000055492, 1.1321869000094011, 1.1493798999581486, 1.1662965000141412, 1.1814343000296503, 1.198769300011918, 1.2146049999864772, 1.2322976000141352, 1.249561300035566, 1.2668458999833092, 1.2819326999597251, 1.298890099977143, 1.3153487000381574, 1.332642399938777, 1.348267399938777, 1.3645132000092417, 1.3809162999968976, 1.3986998000182211, 1.414303099969402, 1.4317426999332383, 1.4483870000112802, 1.4654706999426708]
pilot_s;2;5;0;1;False;3000;True;;8;-168.599043136875;drag;L;-7.483529;-2.7212832;0;-160.02;7.96;1.3467720000771806;1.346848199958913;1683803957.4462888;1683803957.4524727;1683803958.2076404;1683803958.7088783;1683803961.7073834;1683803963.05489;[0.0, 0.0, 0.0, 0.0, 0.0, 0.0, 0.0, 0.0, 0.0, 0.0, 0.0, 0.0, 0.0, 0.0, 0.0, 0.0, 0.0, 0.0, 0.0, 0.0, 0.0, 0.0, 0.0, 0.0, 0.0, 0.0, 0.0, 0.0, 0.0, -0.1133868, -0.85040104, -1.4740285, -2.3244295, -2.7212832, -3.0047503, -3.316564, -3.514991, -3.8551514, -4.110272, -4.3937387, -4.762246, -4.9890194, -5.1591, -5.3858733, -5.5559535, -5.697687, -5.8677673, -5.981154, -6.1228876, -6.2079277, -6.321315, -6.491395, -6.633128, -6.7465153, -6.9165955, -7.029982, -7.143369, -7.228409, -7.2567554, -7.313449, -7.341796, -7.3701425, -7.3701425, -7.3701425, -7.3984895, -7.3984895, -7.3984895, -7.3984895, -7.426836, -7.4551826, -7.4551826, -7.483529, -7.483529, -7.483529, -7.483529, -7.483529, -7.483529, -7.483529, -7.483529, -7.483529, -7.483529];[0.0, 0.0, 0.0, 0.0, 0.0, 0.0, 0.0, 0.0, 0.0, 0.0, 0.0, 0.0, 0.0, 0.0, 0.0, 0.0, 0.0, 0.0, 0.0, 0.0, 0.0, 0.0, 0.0, 0.0, 0.0, 0.0, 0.0, 0.0, 0.0, -0.0850401, -0.73701423, -1.2189082, -1.5590686, -1.6157619, -1.6441087, -1.7008021, -1.7574955, -1.8708823, -1.9559225, -2.012616, -2.1260026, -2.182696, -2.2677362, -2.2960827, -2.3244295, -2.3244295, -2.3244295, -2.3244295, -2.3244295, -2.3244295, -2.3244295, -2.3527763, -2.3527763, -2.3527763, -2.4094696, -2.4094696, -2.4378164, -2.466163, -2.466163, -2.466163, -2.466163, -2.466163, -2.466163, -2.4945097, -2.5228565, -2.5228565, -2.5512033, -2.5512033, -2.5512033, -2.57955, -2.6078966, -2.6362433, -2.66459, -2.66459, -2.66459, -2.6929367, -2.6929367, -2.7212832, -2.7212832, -2.7212832, -2.7212832];[0.0041573999915272, 0.01824140001554042, 0.034855599980801344, 0.05079240002669394, 0.06951950001530349, 0.08407230000011623, 0.10213929996825755, 0.1178074999479577, 0.13421619997825474, 0.1501864999299869, 0.16849650000222027, 0.18353889998979867, 0.20108419994357973, 0.2168298999313265, 0.2341156000038609, 0.2510340999579057, 0.2681390999350697, 0.2838214000221342, 0.3006554999155924, 0.3177203999366611, 0.33432809996884316, 0.35039499995764345, 0.36871770001016557, 0.3850144000025466, 0.4015032999450341, 0.4172703999793157, 0.4337252000113949, 0.44971109996549785, 0.4672402999131009, 0.4825666999677196, 0.5007001999765635, 0.5168388999300078, 0.5338733999524266, 0.5505792999174446, 0.5678573999321088, 0.5830659000203013, 0.6017158000031486, 0.6184497999493033, 0.6328484999248758, 0.6489453000249341, 0.6662528999149799, 0.681869599968195, 0.6990847999695688, 0.7148359999991953, 0.7320425999350846, 0.748666699975729, 0.7658666999777779, 0.7823423999361694, 0.7997456999728456, 0.8150480999611318, 0.8319985999260098, 0.8493430999806151, 0.8657912999624386, 0.8811005000025034, 0.8986049999948591, 0.9153992999345064, 0.9324621999403462, 0.9484744999790564, 0.9654454999836162, 0.9815694999415427, 0.9995741000166163, 1.0151374000124633, 1.031649100012146, 1.0486937999958172, 1.0650070999981835, 1.0808194000273943, 1.0982946999138221, 1.1142456999514252, 1.1316362000070512, 1.1483168000122532, 1.1652548999991268, 1.1824284999165684, 1.1995904999785125, 1.2147683999501169, 1.232499499921687, 1.2477995000081137, 1.2655291999690235, 1.282754199928604, 1.2984511000104249, 1.3142238999716938, 1.3320557000115514]
pilot_s;3;5;0;1;False;1000;True;;8;-27.49620958934339;drag;L;6.548088;-4.025232;0;-31.58;7.69;1.4179389000637457;1.4180198999820277;1683803963.7897503;1683803963.8027754;1683803964.55881;1683803965.0574453;1683803966.0406408;1683803967.4586353;[0.0, 0.0, 0.0, 0.0, 0.0, 0.0, 0.0, 0.0, 0.0, 0.0, 0.0, 0.0, 0.0, 0.0, 0.0, 0.0, 0.0, 0.0, 0.0, 0.0, 0.0, 0.0, 0.0, 0.0, 0.0, 0.0, 0.0, 0.0, 0.0, 0.0, 0.0, 0.0, 0.0, 1.0771747, 1.8708823, 2.381123, 2.4945097, 2.6078966, 2.66459, 2.66459, 2.7212832, 2.7496302, 2.7779768, 2.8630168, 2.948057, 3.0330973, 3.146484, 3.2598708, 3.6283777, 4.025232, 4.3937387, 4.733899, 4.9890194, 5.130753, 5.2724867, 5.4425664, 5.527607, 5.5843005, 5.697687, 5.811074, 5.8677673, 5.9528074, 6.0095005, 6.0661945, 6.1228876, 6.2079277, 6.264621, 6.321315, 6.3496614, 6.378008, 6.434701, 6.4630475, 6.491395, 6.491395, 6.5197415, 6.5197415, 6.5197415, 6.5197415, 6.5197415, 6.548088, 6.548088, 6.548088, 6.548088, 6.548088, 6.548088];[0.0, 0.0, 0.0, 0.0, 0.0, 0.0, 0.0, 0.0, 0.0, 0.0, 0.0, 0.0, 0.0, 0.0, 0.0, 0.0, 0.0, 0.0, 0.0, 0.0, 0.0, 0.0, 0.0, 0.0, 0.0, 0.0, 0.0, 0.0, 0.0, 0.0, 0.0, 0.0, 0.0, -0.9921345, -1.8141888, -2.3244295, -2.4378164, -2.5512033, -2.57955, -2.57955, -2.6078966, -2.6362433, -2.66459, -2.6929367, -2.7496302, -2.7779768, -2.83467, -2.8913634, -3.0047503, -3.0897903, -3.1181371, -3.1181371, -3.1181371, -3.1181371, -3.1181371, -3.1181371, -3.1181371, -3.1181371, -3.1181371, -3.1748307, -3.1748307, -3.2031772, -3.2315238, -3.2598708, -3.2882173, -3.316564, -3.3449106, -3.3449106, -3.3732576, -3.4016042, -3.4582977, -3.6000311, -3.6850712, -3.770111, -3.8268046, -3.8834982, -3.968538, -3.968538, -3.996885, -4.025232, -4.025232, -4.025232, -4.025232, -4.025232, -4.025232];[0.004125199979171157, 0.018821500008925796, 0.03484920004848391, 0.05287809995934367, 0.0683205999666825, 0.08713650004938245, 0.10103410005103797, 0.11870340001769364, 0.1352512000594288, 0.15238420001696795, 0.16792509995866567, 0.18619100004434586, 0.20020459999796003, 0.21838069998193532, 0.23445360001642257, 0.25316920003388077, 0.2679801000049338, 0.2859559999778867, 0.3010562000563368, 0.3175741999875754, 0.3337126000551507, 0.3513094000518322, 0.36834869999438524, 0.3861410999670625, 0.4004605000372976, 0.4184673000127077, 0.43607960001099855, 0.4523275999817997, 0.46802420006133616, 0.48592100001405925, 0.5009107000660151, 0.5189415999921039, 0.5332235000096262, 0.551139899995178, 0.568434500019066, 0.5833275000331923, 0.6021313000237569, 0.6200324000092223, 0.632898399955593, 0.6518356000306085, 0.6664954000152647, 0.6849687000503764, 0.7009405000135303, 0.7181019999552518, 0.7340649999678135, 0.751021399977617, 0.7675662999972701, 0.7856912000570446, 0.7995320999762043, 0.8189153999555856, 0.8336541999597102, 0.8499726000009105, 0.8712023000698537, 0.884792200056836, 0.9000112999929115, 0.9211286000208929, 0.9338348000310361, 0.9514062000671402, 0.9682559999637306, 0.9838460000464693, 0.9996721000643447, 1.0195546000031754, 1.0333316000178456, 1.0519416000461206, 1.0667272000573575, 1.085696000023745, 1.0998718000482768, 1.1168847000226378, 1.1331496000057086, 1.1506378999911249, 1.1666853000642732, 1.183141199988313, 1.1994547999929637, 1.2161903000669554, 1.2344490999821573, 1.2504641000414267, 1.2655517000239342, 1.2836697000311688, 1.2988843000493944, 1.3194453000323847, 1.3325291000073776, 1.3490645000711083, 1.366340700071305, 1.3835460999980569, 1.399543400038965]
pilot_s;4;5;0;1;False;3000;True;;8;-81.03123028710101;drag;L;2.2677362;-6.944942;0;-71.92;7.31;1.349998899968341;1.3501021000556648;1683803968.1776376;1683803968.186641;1683803968.9397724;1683803969.442021;1683803972.4407947;1683803973.7909465;[0.0, 0.0, 0.0, 0.0, 0.0, 0.0, 0.0, 0.0, 0.0, 0.0, 0.0, 0.0, 0.0, 0.0, 0.0, 0.0, 0.0, 0.0, 0.0, 0.0, 0.0, 0.0, 0.0, 0.0, 0.0, 0.0, 0.28346702, 0.42520052, 0.56693405, 0.59528077, 0.6803208, 0.76536095, 0.8220543, 0.93544114, 1.0771747, 1.1338681, 1.2189082, 1.2472548, 1.2756016, 1.332295, 1.3889884, 1.417335, 1.4456817, 1.5023751, 1.5307219, 1.5590686, 1.6157619, 1.6441087, 1.7291489, 1.7574955, 1.7858423, 1.7858423, 1.7858423, 1.8141888, 1.8141888, 1.8141888, 1.8141888, 1.8141888, 1.8141888, 1.8141888, 1.8425356, 1.8708823, 1.899229, 1.9275757, 1.9275757, 1.9275757, 1.9559225, 1.9559225, 1.984269, 2.012616, 2.0693092, 2.1260026, 2.182696, 2.211043, 2.2393894, 2.2393894, 2.2677362, 2.2677362, 2.2677362, 2.2677362, 2.2677362];[0.0, 0.0, 0.0, 0.0, 0.0, 0.0, 0.0, 0.0, 0.0, 0.0, 0.0, 0.0, 0.0, 0.0, 0.0, 0.0, 0.0, 0.0, 0.0, 0.0, 0.0, 0.0, 0.0, 0.0, 0.0, 0.0, -2.6362433, -3.3449106, -3.968538, -4.110272, -4.252005, -4.422086, -4.5354724, -4.648859, -4.7905927, -4.875633, -4.932326, -4.9890194, -5.045713, -5.1874466, -5.2724867, -5.3575263, -5.4425664, -5.4709134, -5.5559535, -5.7260337, -5.8677673, -6.0661945, -6.264621, -6.4063544, -6.491395, -6.5197415, -6.5764346, -6.633128, -6.6614747, -6.6898212, -6.6898212, -6.7181687, -6.7465153, -6.774862, -6.8599014, -6.9165955, -7.0016356, -7.029982, -7.0583286, -7.086675, -7.1150217, -7.1150217, -7.1150217, -7.1150217, -7.1150217, -7.0583286, -7.029982, -7.0016356, -7.0016356, -6.9732885, -6.944942, -6.944942, -6.944942, -6.944942, -6.944942];[0.0042975000105798244, 0.017768400022760034, 0.034618600038811564, 0.05061370006296784, 0.06960110005456954, 0.08422770001925528, 0.10151260008569807, 0.11831810011062771, 0.13558890006970614, 0.1512746000662446, 0.16932770004495978, 0.18440240004565567, 0.2009166000643745, 0.21693680004682392, 0.23601920006331056, 0.25089270004536957, 0.2677472000941634, 0.28333910007495433, 0.30378140008542687, 0.3172991001047194, 0.3352480001049116, 0.3500829000258818, 0.3683787001064047, 0.3847659000894055, 0.40088240010663867, 0.4179841000586748, 0.4343701000325382, 0.4512307000113651, 0.46828460006508976, 0.48479970009066164, 0.5009736000793055, 0.5187186000403017, 0.5332967001013458, 0.5504223000025377, 0.5682821000227705, 0.5841168001061305, 0.6026597000891343, 0.6161252000601962, 0.6334884000243619, 0.6509908000007272, 0.6663823000853881, 0.6828821001108736, 0.7002528000157326, 0.716345600085333, 0.733482800074853, 0.7504970000591129, 0.7684739000396803, 0.7831650000298396, 0.8007174000376835, 0.8208708000602201, 0.8341965000145137, 0.8509247000329196, 0.8674765001051128, 0.88313760003075, 0.9038606000831351, 0.9171976000070572, 0.9345736000686884, 0.9504672000184655, 0.9671012000180781, 0.983321400010027, 1.0025347000919282, 1.0165602000197396, 1.0363050000742078, 1.0494745000032708, 1.0665055999998003, 1.0822743000462651, 1.100181500078179, 1.11597000004258, 1.1346107000717893, 1.149215100100264, 1.1668395000742748, 1.1836485000094399, 1.2009113000240177, 1.2166592000285164, 1.233468700083904, 1.2493612000253052, 1.2690479001030326, 1.2831639000214636, 1.3005088000791147, 1.3161626000655815, 1.3335970001062378]
pilot_s;5;5;0;1;False;1000;True;;8;81.43036782677372;drag;L;1.7291489;6.8599014;0;75.85;7.07;1.2676795000443235;1.2677559000439942;1683803974.529932;1683803974.5354927;1683803975.290597;1683803975.7929473;1683803976.7724004;1683803978.0406368;[0.0, 0.0, 0.0, 0.0, 0.0, 0.0, 0.0, 0.0, 0.0, 0.0, 0.0, 0.0, 0.0, 0.0, 0.0, 0.0, 0.0, 0.0, 0.0, 0.0, 0.0, 0.0, 0.0, 0.0, 0.0, 0.0, 0.1700802, 0.5102406, 0.6803208, 0.76536095, 0.85040104, 0.96378785, 0.9921345, 0.9921345, 1.0204812, 1.0204812, 1.0488279, 1.0488279, 1.0488279, 1.1622148, 1.2189082, 1.2756016, 1.2756016, 1.3039483, 1.3039483, 1.3039483, 1.3039483, 1.332295, 1.3606416, 1.3606416, 1.3606416, 1.417335, 1.4456817, 1.5023751, 1.5307219, 1.5307219, 1.5307219, 1.5307219, 1.5307219, 1.5590686, 1.5590686, 1.6157619, 1.6157619, 1.6441087, 1.6441087, 1.6724553, 1.6724553, 1.6724553, 1.7008021, 1.7008021, 1.7291489, 1.7291489, 1.7291489, 1.7291489, 1.7291489, 1.7291489];[0.0, 0.0, 0.0, 0.0, 0.0, 0.0, 0.0, 0.0, 0.0, 0.0, 0.0, 0.0, 0.0, 0.0, 0.0, 0.0, 0.0, 0.0, 0.0, 0.0, 0.0, 0.0, 0.0, 0.0, 0.0, 0.0, 0.6236274, 1.4456817, 1.7858423, 1.9559225, 2.1543493, 2.3527763, 2.4378164, 2.466163, 2.5512033, 2.6078966, 2.7212832, 2.8063235, 2.948057, 3.4582977, 3.798458, 3.996885, 4.166965, 4.2236586, 4.2803516, 4.337045, 4.422086, 4.6772056, 4.9039793, 5.130753, 5.4425664, 5.7260337, 6.0095005, 6.264621, 6.321315, 6.4063544, 6.434701, 6.4630475, 6.491395, 6.5197415, 6.5764346, 6.6614747, 6.7181687, 6.7465153, 6.8032084, 6.831555, 6.831555, 6.8599014, 6.8599014, 6.8599014, 6.8599014, 6.8599014, 6.8599014, 6.8599014, 6.8599014, 6.8599014];[0.003960100002586842, 0.01987119996920228, 0.03586970001924783, 0.05317630001809448, 0.06842499994672835, 0.08789580001030117, 0.1007870000321418, 0.11995079996995628, 0.13460240000858903, 0.15358469996135682, 0.1684418999357149, 0.18656439997721463, 0.20132370002102107, 0.2188784999307245, 0.235130799934268, 0.2534824999747798, 0.26820139994379133, 0.28523060004226863, 0.30332239996641874, 0.3198710000142455, 0.3340669999597594, 0.35197790001984686, 0.36973179993219674, 0.3853242000332102, 0.40181519999168813, 0.42028970003593713, 0.43518010003026575, 0.4554196000099182, 0.4690144000342116, 0.4861394999315962, 0.5013090999564156, 0.5183914999943227, 0.5364608999807388, 0.5527325000148267, 0.56809620000422, 0.586603399948217, 0.6021746000042185, 0.617886699968949, 0.6351871000370011, 0.6516879999544472, 0.6678868000162765, 0.6853375999489799, 0.7019164999946952, 0.7206024000188336, 0.7360205999575555, 0.7530965999467298, 0.7687782000284642, 0.7864410999463871, 0.802172299940139, 0.8202096000313759, 0.8339947999920696, 0.8512868999969214, 0.8681829000124708, 0.8860340999672189, 0.9014221000252292, 0.9190076999366283, 0.9355574999935925, 0.9514330000383779, 0.9684769000159577, 0.985096100019291, 1.00094179995358, 1.0182711000088602, 1.0365963999647647, 1.0516602999996394, 1.0678519000066444, 1.0838740000035614, 1.1001280000200495, 1.1194139999570325, 1.1339134000008926, 1.1519597000442445, 1.1676076999865472, 1.1838521999306977, 1.2017943999962881, 1.2178766999859363, 1.2353533999994397, 1.2519904000218958]
pilot_s;6;5;0;1;False;3000;True;;8;170.46913612030556;drag;L;-6.8032084;0.7086675;0;174.05;6.84;0.983183900010772;0.9832890999969095;1683803978.8875647;1683803978.9016018;1683803979.657054;1683803980.1575341;1683803983.3073666;1683803984.290907;[0.0, 0.0, 0.0, 0.0, 0.0, 0.0, 0.0, 0.0, 0.0, 0.0, 0.0, 0.0, 0.0, 0.0, 0.0, 0.0, -0.96378785, -1.2756016, -2.182696, -3.0614438, -3.316564, -3.4866443, -3.6567245, -3.713418, -3.713418, -3.7417645, -3.770111, -3.798458, -3.798458, -3.8268046, -3.911845, -3.968538, -4.110272, -4.2236586, -4.337045, -4.620512, -4.9890194, -5.3575263, -5.66934, -5.782727, -5.8394203, -5.896114, -5.924461, -5.9528074, -5.981154, -6.037847, -6.2079277, -6.321315, -6.434701, -6.5197415, -6.6047816, -6.6614747, -6.7181687, -6.7465153, -6.7465153, -6.774862, -6.8032084, -6.8032084, -6.8032084];[0.0, 0.0, 0.0, 0.0, 0.0, 0.0, 0.0, 0.0, 0.0, 0.0, 0.0, 0.0, 0.0, 0.0, 0.0, 0.0, -0.0566934, -0.0850401, -0.2551203, -0.3401604, -0.3401604, -0.3401604, -0.3401604, -0.3401604, -0.3401604, -0.3401604, -0.3401604, -0.3401604, -0.3401604, -0.3401604, -0.3401604, -0.3401604, -0.3118137, -0.3118137, -0.2551203, -0.1133868, 0.0850401, 0.28346702, 0.39685383, 0.4535472, 0.48189393, 0.48189393, 0.5102406, 0.53858733, 0.53858733, 0.53858733, 0.53858733, 0.53858733, 0.53858733, 0.59528077, 0.6236274, 0.65197414, 0.65197414, 0.6803208, 0.7086675, 0.7086675, 0.7086675, 0.7086675, 0.7086675];[0.003746700007468462, 0.018516499898396432, 0.033695399994030595, 0.04974529996979982, 0.06678889994509518, 0.0832979999249801, 0.10040429991204292, 0.11620549997314811, 0.13435239996761084, 0.15000959997996688, 0.16778929997235537, 0.18346999993082136, 0.19883069989737123, 0.21610919991508126, 0.23352699994575232, 0.24880519998259842, 0.2712420999305323, 0.28182399994693696, 0.2996204999508336, 0.3179170999210328, 0.33300759992562234, 0.34942330000922084, 0.3676121999742463, 0.381230799946934, 0.40063769998960197, 0.41594499989878386, 0.43441149999853224, 0.4514072999591008, 0.46606749994680285, 0.4843741999939084, 0.5011148999910802, 0.5160461999475956, 0.5361916999099776, 0.550288499915041, 0.5671118999598548, 0.5847437999909744, 0.5991897999774665, 0.6164659999776632, 0.6342555999290198, 0.6479000999825075, 0.6677163999993354, 0.6829804999288172, 0.6990044999402016, 0.7191760999849066, 0.7334607999073341, 0.7492305999621749, 0.7678623999236152, 0.7830190999666229, 0.8008348000003025, 0.8177731999894604, 0.8331611999310553, 0.8501483999425545, 0.8670293999603018, 0.883471499895677, 0.9003979999106377, 0.9145051999948919, 0.9335295999189839, 0.9494872000068426, 0.9660482999170199]
pilot_s;7;5;0;1;False;1000;True;;8;-150.45945892053908;drag;L;-6.548088;-4.5071254;0;-145.46;7.95;1.7318819999927655;1.7320822000037879;1683803985.1038964;1683803985.1179986;1683803985.8732283;1683803986.37516;1683803987.356931;1683803989.0888326;[0.0, 0.0, 0.0, 0.0, 0.0, 0.0, 0.0, 0.0, 0.0, 0.0, 0.0, 0.0, 0.0, 0.0, 0.0, 0.0, 0.0, 0.0, 0.0, 0.0, 0.0, 0.0, 0.0, 0.0, 0.0, 0.0, 0.0, 0.0, 0.0, 0.0, 0.0, 0.0, 0.0, 0.0, 0.0, 0.0, 0.0, 0.0, 0.0, 0.0, 0.0, 0.0, 0.0, 0.0, 0.0, 0.0, 0.0, 0.0, 0.0, 0.0, 0.0, 0.0, 0.0, 0.0, 0.0, 0.0, 0.0, 0.0, 0.0, 0.0, 0.0, -0.28346702, -0.9921345, -1.6724553, -2.1260026, -2.4945097, -3.0047503, -3.3732576, -3.6283777, -3.968538, -4.1953115, -4.422086, -4.5921655, -4.733899, -4.9890194, -5.130753, -5.2441397, -5.3575263, -5.41422, -5.4425664, -5.4709134, -5.527607, -5.66934, -5.811074, -5.981154, -6.0661945, -6.1228876, -6.1795807, -6.2079277, -6.2362742, -6.264621, -6.378008, -6.434701, -6.4630475, -6.491395, -6.5197415, -6.5197415, -6.548088, -6.548088, -6.548088, -6.548088, -6.548088, -6.548088, -6.548088];[0.0, 0.0, 0.0, 0.0, 0.0, 0.0, 0.0, 0.0, 0.0, 0.0, 0.0, 0.0, 0.0, 0.0, 0.0, 0.0, 0.0, 0.0, 0.0, 0.0, 0.0, 0.0, 0.0, 0.0, 0.0, 0.0, 0.0, 0.0, 0.0, 0.0, 0.0, 0.0, 0.0, 0.0, 0.0, 0.0, 0.0, 0.0, 0.0, 0.0, 0.0, 0.0, 0.0, 0.0, 0.0, 0.0, 0.0, 0.0, 0.0, 0.0, 0.0, 0.0, 0.0, 0.0, 0.0, 0.0, 0.0, 0.0, 0.0, 0.0, 0.0, -0.1700802, -0.65197414, -1.0488279, -1.2472548, -1.4456817, -1.7008021, -1.899229, -2.0409625, -2.182696, -2.3244295, -2.466163, -2.6078966, -2.7212832, -2.9764037, -3.1181371, -3.2315238, -3.316564, -3.3449106, -3.3732576, -3.4299507, -3.4866443, -3.6567245, -3.798458, -3.968538, -4.0535784, -4.081925, -4.1386185, -4.166965, -4.1953115, -4.252005, -4.337045, -4.365392, -4.422086, -4.422086, -4.4504323, -4.4504323, -4.478779, -4.478779, -4.5071254, -4.5071254, -4.5071254, -4.5071254, -4.5071254];[0.005334399989806116, 0.019089999957941473, 0.03496759990230203, 0.05203529994469136, 0.06782579992432147, 0.08553579996805638, 0.10180099995341152, 0.11931259999983013, 0.13412900001276284, 0.1524885999970138, 0.16712519992142916, 0.18477099994197488, 0.1996373999863863, 0.2177124998997897, 0.23556790000293404, 0.25175860000308603, 0.2675248999148607, 0.28542849991936237, 0.3011980999726802, 0.31937149993609637, 0.3346964999800548, 0.35147639992646873, 0.36846559995319694, 0.3859156999969855, 0.4008306999458, 0.41775149991735816, 0.43388629995752126, 0.4509718999033794, 0.4671180999139324, 0.4847502999473363, 0.5017376999603584, 0.5165779999224469, 0.5335505999391899, 0.5518942999187857, 0.5669396999292076, 0.5849321999121457, 0.6009734999388456, 0.6183149999706075, 0.6336674999911338, 0.6513976999558508, 0.6664665999123827, 0.6843300999607891, 0.7001054999418557, 0.7173063999507576, 0.7340275999158621, 0.7515209999401122, 0.7674558999715373, 0.7841881999047473, 0.8018192999297753, 0.8178595999488607, 0.8331906999228522, 0.8509716999251395, 0.866815899964422, 0.884474299964495, 0.8997327999677509, 0.9181201999308541, 0.9345007999800146, 0.9511058999923989, 0.967192400014028, 0.9836557999951765, 1.000714399968274, 1.0176592000061646, 1.0335034999297932, 1.0515038999728858, 1.0673693999415264, 1.0839159999741241, 1.1024693999206647, 1.118544299970381, 1.1331942999968305, 1.151538799982518, 1.1676567000104114, 1.1854902999475598, 1.1997832999331877, 1.217186399968341, 1.235047800000757, 1.2512999000027776, 1.2683267999673262, 1.2836018999805674, 1.3010719999438152, 1.3208484000060707, 1.333733499981463, 1.3515558999497443, 1.3678845999529585, 1.3845271999016404, 1.4036789999809116, 1.4175095999380574, 1.4340902999974787, 1.4521689999382943, 1.4668183999601752, 1.4849067999748513, 1.5003411999205127, 1.5192854999331757, 1.5339792999438941, 1.5499339000089094, 1.5670961999567226, 1.5860236999578774, 1.5990153999300674, 1.6176848999457434, 1.6321160999359563, 1.650141999940388, 1.66689100000076, 1.6834558999398723, 1.6995086999377236, 1.7178944000042975]
pilot_s;8;5;0;1;False;1000;True;;8;-0.7658227807680303;drag;L;7.9087296;-0.4535472;0;-3.28;7.92;1.4645104999653995;1.4646003000671044;1683803989.937124;1683803989.9514747;1683803990.7065575;1683803991.2082725;1683803992.1885571;1683803993.6535108;[0.0, 0.0, 0.0, 0.0, 0.0, 0.0, 0.0, 0.0, 0.0, 0.0, 0.0, 0.0, 0.0, 0.0, 0.0, 0.0, 0.0, 0.0, 0.0, 0.0, 0.0, 0.0, 0.0, 0.0, 0.0, 0.0, 0.0, 0.0, 0.0, 0.0, 0.0, 0.0, 0.0, 1.3889884, 2.2393894, 2.9197102, 3.713418, 4.025232, 4.2803516, 4.478779, 4.648859, 4.818939, 4.932326, 5.0740595, 5.2441397, 5.3858733, 5.4709134, 5.5843005, 5.6409936, 5.66934, 5.697687, 5.7260337, 5.75438, 5.8394203, 5.9528074, 6.3496614, 6.7181687, 6.9732885, 7.1717157, 7.285102, 7.341796, 7.3701425, 7.426836, 7.4551826, 7.483529, 7.5118756, 7.5118756, 7.540222, 7.596916, 7.6536093, 7.710303, 7.795343, 7.8520365, 7.9087296, 7.937076, 7.9654226, 7.9654226, 7.9654226, 7.9654226, 7.9654226, 7.9654226, 7.9654226, 7.937076, 7.937076, 7.9087296, 7.9087296, 7.9087296, 7.9087296];[0.0, 0.0, 0.0, 0.0, 0.0, 0.0, 0.0, 0.0, 0.0, 0.0, 0.0, 0.0, 0.0, 0.0, 0.0, 0.0, 0.0, 0.0, 0.0, 0.0, 0.0, 0.0, 0.0, 0.0, 0.0, 0.0, 0.0, 0.0, 0.0, 0.0, 0.0, 0.0, 0.0, -0.1700802, -0.28346702, -0.36850712, -0.4535472, -0.48189393, -0.5102406, -0.56693405, -0.56693405, -0.6236274, -0.65197414, -0.65197414, -0.65197414, -0.65197414, -0.65197414, -0.6803208, -0.6803208, -0.6803208, -0.6803208, -0.6803208, -0.6803208, -0.6803208, -0.6236274, -0.53858733, -0.4535472, -0.36850712, -0.28346702, -0.2551203, -0.19842692, -0.19842692, -0.1700802, -0.1700802, -0.1700802, -0.1700802, -0.1700802, -0.14173351, -0.1133868, -0.0850401, -0.0850401, -0.0850401, -0.0850401, -0.0850401, -0.0850401, -0.0850401, -0.0850401, -0.14173351, -0.1700802, -0.2551203, -0.3118137, -0.36850712, -0.39685383, -0.42520052, -0.4535472, -0.4535472, -0.4535472, -0.4535472];[0.0038457000628113747, 0.020352000021375716, 0.03545460000168532, 0.052755100070498884, 0.0697441000957042, 0.08600350003689528, 0.10082390008028597, 0.11764430010225624, 0.13474960008170456, 0.15103600011207163, 0.16806710010860115, 0.18607260007411242, 0.20066020009107888, 0.22023990005254745, 0.23505120002664626, 0.25196110003162175, 0.2680795000633225, 0.28500540007371455, 0.3024911000393331, 0.3187977001070976, 0.33464210003148764, 0.3516761000500992, 0.3675332000711933, 0.38466050010174513, 0.4008501000935212, 0.4186065000249073, 0.43538560008164495, 0.45242890005465597, 0.46832010010257363, 0.48459730006288737, 0.5010678000980988, 0.5176493000471964, 0.5341710000066087, 0.5521111000562087, 0.5689173000864685, 0.5858187000267208, 0.6010984000749886, 0.6190937000792474, 0.6361107000848278, 0.6512460000813007, 0.6680920000653714, 0.6856296000769362, 0.7005850001005456, 0.720154800103046, 0.7348437000764534, 0.751944400020875, 0.7681343000149354, 0.7850157000357285, 0.8007658000569791, 0.8177963000489399, 0.8344775000587106, 0.8513346000108868, 0.8665425000945106, 0.88476000004448, 0.8999256000388414, 0.91824530006852, 0.9345809000078589, 0.951614800025709, 0.969121600035578, 0.9836374000879005, 0.9999899000395089, 1.017842200002633, 1.034831800032407, 1.0506820000009611, 1.0660845000529662, 1.085517100058496, 1.0998938000993803, 1.1178830000571907, 1.1330694000935182, 1.1508793000830337, 1.1660897000692785, 1.1837078001117334, 1.2008282000897452, 1.2169664000393823, 1.2335755000822246, 1.2509882000740618, 1.266999400104396, 1.2836131000658497, 1.3006044001085684, 1.3192450000206009, 1.3347228000639006, 1.3509590000612661, 1.3671753000235185, 1.3856017000507563, 1.4003636999987066, 1.419361500069499, 1.4331576001131907, 1.4509086000034586]
pilot_s;9;5;0;1;False;3000;True;;8;30.64338595262478;drag;L;7.2567554;3.8268046;0;27.8;8.2;1.3651752000441775;1.3652731999754906;1683803994.5014687;1683803994.5177233;1683803995.2704725;1683803995.7730646;1683803998.7723103;1683804000.1380892;[0.0, 0.0, 0.0, 0.0, 0.0, 0.0, 0.0, 0.0, 0.0, 0.0, 0.0, 0.0, 0.0, 0.0, 0.0, 0.0, 0.0, 0.0, 0.0, 0.0, 0.0, 0.0, 0.0, 0.0, 0.0, 0.0, 0.0, 0.0, 0.0, 0.0, 0.0, 0.0, 0.0, 0.0, 0.0, 0.8220543, 1.5307219, 2.3527763, 2.9197102, 3.4299507, 3.6283777, 3.8268046, 4.0535784, 4.166965, 4.252005, 4.337045, 4.365392, 4.422086, 4.5071254, 4.563819, 4.6772056, 4.7905927, 4.9039793, 5.1024065, 5.2724867, 5.3575263, 5.4709134, 5.527607, 5.5559535, 5.612647, 5.697687, 5.811074, 5.924461, 6.037847, 6.2362742, 6.321315, 6.491395, 6.6614747, 6.831555, 6.9165955, 6.9732885, 7.0016356, 7.0583286, 7.1150217, 7.1717157, 7.2000623, 7.2567554, 7.2567554, 7.2567554, 7.2567554, 7.2567554, 7.2567554];[0.0, 0.0, 0.0, 0.0, 0.0, 0.0, 0.0, 0.0, 0.0, 0.0, 0.0, 0.0, 0.0, 0.0, 0.0, 0.0, 0.0, 0.0, 0.0, 0.0, 0.0, 0.0, 0.0, 0.0, 0.0, 0.0, 0.0, 0.0, 0.0, 0.0, 0.0, 0.0, 0.0, 0.0, 0.0, 0.2551203, 0.42520052, 0.5102406, 0.53858733, 0.6236274, 0.6803208, 0.76536095, 0.93544114, 1.0204812, 1.1055214, 1.2189082, 1.2472548, 1.3039483, 1.3606416, 1.4740285, 1.5590686, 1.7008021, 1.899229, 2.2677362, 2.5512033, 2.7212832, 2.8913634, 2.9764037, 3.0047503, 3.0614438, 3.1181371, 3.2031772, 3.2598708, 3.316564, 3.4299507, 3.514991, 3.6283777, 3.713418, 3.770111, 3.798458, 3.8268046, 3.8268046, 3.8268046, 3.8268046, 3.8268046, 3.8268046, 3.8268046, 3.8268046, 3.8268046, 3.8268046, 3.8268046, 3.8268046];[0.004931100062094629, 0.017756100045517087, 0.03526529995724559, 0.050717600039206445, 0.06734810001216829, 0.08271620003506541, 0.1013752999715507, 0.11727599997539073, 0.1353390000294894, 0.15021660004276782, 0.16972830006852746, 0.18454889999702573, 0.2012251999694854, 0.2171404999680817, 0.23567019996698946, 0.2495182000566274, 0.27023010002449155, 0.28331560001242906, 0.30315309995785356, 0.31716199999209493, 0.33530230005271733, 0.35140040004625916, 0.3675539999967441, 0.3845861000008881, 0.403085199999623, 0.41802219999954104, 0.4357809000648558, 0.4506690000416711, 0.46945059997960925, 0.48390690004453063, 0.503440500004217, 0.5165575999999419, 0.5334878000430763, 0.5515886000357568, 0.5668357000686228, 0.5852451999671757, 0.600944000063464, 0.6186291000340134, 0.6346858000615612, 0.6541627000551671, 0.6680857000174001, 0.6831092999782413, 0.7029414999997243, 0.7168878000229597, 0.734890199964866, 0.7514381000073627, 0.7674616000149399, 0.7860070000169799, 0.800402499968186, 0.8174192999722436, 0.834420399973169, 0.8509269000496715, 0.8681179999839514, 0.8856713999994099, 0.9028872000053525, 0.9194900000002235, 0.9355771000264212, 0.951011799974367, 0.9672405000310391, 0.9834875999949872, 1.00305030005984, 1.0159831000491977, 1.0342235000571236, 1.0507950000464916, 1.0670772000448778, 1.081979800015688, 1.0993788000196218, 1.1185119000729173, 1.1341019000392407, 1.1482875000219792, 1.1672467000316828, 1.1846416000043973, 1.2014011000283062, 1.2160109999822453, 1.2337497000116855, 1.250192900071852, 1.2659305999986827, 1.2819808999774978, 1.300125400070101, 1.3163547000149265, 1.33459700003732, 1.3510406999848783]
pilot_s;0;6;0;1;False;3000;True;;8;7.378558419837235;drag;L;8.390623;0.76536095;0;5.21;8.43;1.1328825999516994;1.1330060999607667;1683804010.7669806;1683804010.7830002;1683804011.5390496;1683804012.0384746;1683804015.0386217;1683804016.1722465;[0.0, 0.0, 0.0, 0.0, 0.0, 0.0, 0.0, 0.0, 0.0, 0.0, 0.0, 0.0, 0.0, 0.0, 0.0, 0.0, 0.0, 0.0, 0.0, 0.0, 0.0, 0.0, 0.0, 0.0, 0.0, 0.0, 2.0409625, 3.0897903, 3.9401915, 4.3086987, 4.5071254, 4.7055526, 4.960673, 5.2441397, 5.5843005, 5.75438, 5.924461, 6.0661945, 6.3496614, 6.491395, 6.888248, 7.0583286, 7.143369, 7.1717157, 7.228409, 7.2567554, 7.285102, 7.341796, 7.426836, 7.426836, 7.483529, 7.540222, 7.710303, 8.07881, 8.220544, 8.33393, 8.390623, 8.390623, 8.390623, 8.390623, 8.390623, 8.390623, 8.390623, 8.390623, 8.390623, 8.390623, 8.390623, 8.390623];[0.0, 0.0, 0.0, 0.0, 0.0, 0.0, 0.0, 0.0, 0.0, 0.0, 0.0, 0.0, 0.0, 0.0, 0.0, 0.0, 0.0, 0.0, 0.0, 0.0, 0.0, 0.0, 0.0, 0.0, 0.0, 0.0, 0.19842692, 0.2267736, 0.3118137, 0.3401604, 0.39685383, 0.4535472, 0.48189393, 0.53858733, 0.53858733, 0.53858733, 0.53858733, 0.56693405, 0.59528077, 0.59528077, 0.59528077, 0.56693405, 0.56693405, 0.53858733, 0.53858733, 0.53858733, 0.53858733, 0.53858733, 0.53858733, 0.53858733, 0.53858733, 0.56693405, 0.6236274, 0.6803208, 0.73701423, 0.76536095, 0.76536095, 0.76536095, 0.76536095, 0.76536095, 0.76536095, 0.76536095, 0.76536095, 0.76536095, 0.76536095, 0.76536095, 0.76536095, 0.76536095];[0.0034416000125929713, 0.016424600034952164, 0.03338669997174293, 0.049092000001110137, 0.066606399952434, 0.08254900004249066, 0.0992038999684155, 0.11619910004083067, 0.1329241000348702, 0.15016389999073, 0.16642629995476454, 0.18457050004508346, 0.19951509998645633, 0.2155056999763474, 0.23267759999725968, 0.24913839995861053, 0.2667067999718711, 0.2825422999449074, 0.301098300027661, 0.3163815999869257, 0.3342298000352457, 0.3493616000050679, 0.3674620999954641, 0.38250910001806915, 0.4003211000235751, 0.4157703999662772, 0.43256700003985316, 0.45189709996338934, 0.4666625999379903, 0.4821776000317186, 0.5011128999758512, 0.517127100029029, 0.5334248000290245, 0.5504580000415444, 0.5660785000072792, 0.5837016999721527, 0.6003475999459624, 0.6160539999837056, 0.635336900013499, 0.6490023999940604, 0.6672387999715284, 0.6858443999662995, 0.7000417000381276, 0.7175250999862328, 0.734653800027445, 0.7497888000216335, 0.7676743000047281, 0.7813383999746293, 0.8013624999439344, 0.8164165000198409, 0.8333251000149176, 0.8485012999735773, 0.8667180000338703, 0.8838353999890387, 0.9003408999415115, 0.9178701000055298, 0.9358006999827921, 0.9502890999428928, 0.9669995999429375, 0.9830438999924809, 1.001089800032787, 1.0162377000087872, 1.033133800025098, 1.0500485999509692, 1.067276299931109, 1.083471699967049, 1.099820000003092, 1.1174639000091702]
pilot_s;1;6;0;1;False;1000;True;;8;-154.70462930756304;drag;L;-6.292968;-4.6772056;0;-143.38;7.84;1.583670899970457;1.5837692000204697;1683804017.0143192;1683804017.0331628;1683804017.7866526;1683804018.2889323;1683804019.2714596;1683804020.8553638;[0.0, 0.0, 0.0, 0.0, 0.0, 0.0, 0.0, 0.0, 0.0, 0.0, 0.0, 0.0, 0.0, 0.0, 0.0, 0.0, 0.0, 0.0, 0.0, 0.0, 0.0, 0.0, 0.0, 0.0, 0.0, 0.0, 0.0, 0.0, 0.0, 0.0, 0.0, -1.3606416, -2.2960827, -2.9197102, -3.5433376, -3.8551514, -4.1386185, -4.3937387, -4.5071254, -4.648859, -4.733899, -4.847286, -4.960673, -5.130753, -5.4425664, -6.094541, -6.4063544, -6.633128, -6.7181687, -6.774862, -6.8032084, -6.831555, -6.888248, -6.888248, -6.9165955, -6.944942, -6.944942, -6.944942, -7.0016356, -7.029982, -7.0583286, -7.086675, -7.1150217, -7.1150217, -7.1150217, -7.1150217, -7.1150217, -7.086675, -7.086675, -7.0583286, -7.0583286, -7.0583286, -7.029982, -7.029982, -7.029982, -7.0016356, -6.9732885, -6.9732885, -6.944942, -6.888248, -6.831555, -6.7181687, -6.548088, -6.491395, -6.434701, -6.378008, -6.3496614, -6.321315, -6.321315, -6.292968, -6.292968, -6.292968, -6.292968, -6.292968, -6.292968];[0.0, 0.0, 0.0, 0.0, 0.0, 0.0, 0.0, 0.0, 0.0, 0.0, 0.0, 0.0, 0.0, 0.0, 0.0, 0.0, 0.0, 0.0, 0.0, 0.0, 0.0, 0.0, 0.0, 0.0, 0.0, 0.0, 0.0, 0.0, 0.0, 0.0, 0.0, -1.5307219, -2.6078966, -3.2882173, -3.911845, -4.1386185, -4.2803516, -4.422086, -4.478779, -4.5354724, -4.5354724, -4.5921655, -4.5921655, -4.648859, -4.733899, -4.875633, -4.932326, -4.960673, -4.960673, -4.960673, -4.960673, -4.960673, -4.960673, -4.932326, -4.932326, -4.9039793, -4.9039793, -4.875633, -4.875633, -4.847286, -4.818939, -4.818939, -4.818939, -4.818939, -4.818939, -4.818939, -4.818939, -4.818939, -4.818939, -4.818939, -4.7905927, -4.762246, -4.762246, -4.762246, -4.762246, -4.762246, -4.762246, -4.762246, -4.762246, -4.762246, -4.733899, -4.733899, -4.7055526, -4.6772056, -4.6772056, -4.6772056, -4.6772056, -4.6772056, -4.6772056, -4.6772056, -4.6772056, -4.6772056, -4.6772056, -4.6772056, -4.6772056];[0.004113900009542704, 0.018737299949862063, 0.035680899978615344, 0.051313100033439696, 0.06846810004208237, 0.08521029993426055, 0.10151389997918159, 0.11924000002909452, 0.13434570003300905, 0.15204660000745207, 0.16760569997131824, 0.1862906999886036, 0.1998433000408113, 0.21700309996958822, 0.2337050000205636, 0.2517286000074819, 0.2675953999860212, 0.28602080000564456, 0.30156449996866286, 0.31967979995533824, 0.3334024000214413, 0.35215679998509586, 0.36816940002609044, 0.38520479993894696, 0.4020584999816492, 0.41924189997371286, 0.434131299960427, 0.45192959997802973, 0.467215699958615, 0.48468510003294796, 0.4996117999544367, 0.5199260000372306, 0.5352207999676466, 0.5511105000041425, 0.5683579000178725, 0.5851993999676779, 0.601345399976708, 0.6172516000224277, 0.6344481999985874, 0.6516904999734834, 0.6665936999488622, 0.6876428000396118, 0.7002898999489844, 0.71914800000377, 0.734390199999325, 0.7510151999304071, 0.7679993000347167, 0.7860147999599576, 0.7989840999944136, 0.8171843999298289, 0.8342954999534413, 0.8498965000035241, 0.868241999996826, 0.8850064999423921, 0.9011028000386432, 0.9196840999647975, 0.9335222999798134, 0.9513870000373572, 0.9693276999751106, 0.9834358999505639, 0.9986761999316514, 1.0174540999578312, 1.0327211000258103, 1.050041800015606, 1.0663122000405565, 1.0845859999535605, 1.099764100043103, 1.1167756000068039, 1.132833500043489, 1.1494428999722004, 1.16650509997271, 1.1856223000213504, 1.1982628999976441, 1.216174199944362, 1.233796100015752, 1.2497805999591947, 1.2664578999392688, 1.2826640999410301, 1.3000360999722034, 1.315859999973327, 1.3332295999862254, 1.3528549999464303, 1.3690529000014067, 1.3841707999818027, 1.4012331999838352, 1.4204895000439137, 1.4331921000266448, 1.4496723000193015, 1.465291199972853, 1.4831955999834463, 1.5010732000228018, 1.5170800000196323, 1.5339454000350088, 1.5508845000294968, 1.5665543000213802]
pilot_s;2;6;0;1;False;3000;True;;8;11.7051172632344;drag;L;8.135503;1.5590686;0;10.85;8.28;1.0326144000282511;1.032697599963285;1683804021.6308365;1683804021.6498494;1683804022.4014394;1683804022.9038577;1683804025.9039884;1683804026.9364924;[0.0, 0.0, 0.0, 0.0, 0.0, 0.0, 0.0, 0.0, 0.0, 0.0, 0.0, 0.0, 0.0, 0.0, 0.0, 0.0, 0.0, 0.0, 0.0, 0.0, 0.0, 0.0, 0.0, 0.0, 0.0, 0.0, 0.0, 2.0976558, 3.7417645, 4.875633, 5.5843005, 6.0661945, 6.3496614, 6.434701, 6.4630475, 6.491395, 6.491395, 6.548088, 6.5764346, 6.6898212, 6.8599014, 6.9732885, 7.0583286, 7.086675, 7.143369, 7.143369, 7.1717157, 7.2000623, 7.313449, 7.426836, 7.596916, 7.6536093, 7.82369, 7.880383, 7.9654226, 8.022117, 8.07881, 8.07881, 8.107157, 8.135503, 8.135503, 8.135503];[0.0, 0.0, 0.0, 0.0, 0.0, 0.0, 0.0, 0.0, 0.0, 0.0, 0.0, 0.0, 0.0, 0.0, 0.0, 0.0, 0.0, 0.0, 0.0, 0.0, 0.0, 0.0, 0.0, 0.0, 0.0, 0.0, 0.0, 0.53858733, 0.87874776, 0.9921345, 0.9921345, 1.0204812, 1.0204812, 1.0204812, 1.0204812, 1.0204812, 1.0204812, 1.0204812, 1.0488279, 1.1055214, 1.2189082, 1.3039483, 1.3606416, 1.3889884, 1.417335, 1.417335, 1.417335, 1.4456817, 1.4456817, 1.4456817, 1.4740285, 1.4740285, 1.4740285, 1.5023751, 1.5307219, 1.5307219, 1.5590686, 1.5590686, 1.5590686, 1.5590686, 1.5590686, 1.5590686];[0.003917299909517169, 0.0173731999238953, 0.03532449994236231, 0.05083349999040365, 0.06875129998661578, 0.0846259999088943, 0.10225699993316084, 0.11836619989480823, 0.13493039994500577, 0.15195589989889413, 0.1685900999000296, 0.18300179997459054, 0.20103050000034273, 0.21714669989887625, 0.2349012999329716, 0.25241399998776615, 0.26750869990792125, 0.28597359999548644, 0.30222429998684675, 0.3184567999560386, 0.3368989999871701, 0.35278549999929965, 0.37033509998582304, 0.3848987999372184, 0.4018583999713883, 0.4184363998938352, 0.43573769996874034, 0.45443459996022284, 0.4692427999107167, 0.48325769999064505, 0.5018701999215409, 0.5170786998933181, 0.534052399918437, 0.5521052998956293, 0.5673692999407649, 0.5864055999554694, 0.6015864999499172, 0.6201010999502614, 0.635060100001283, 0.6503191998926923, 0.6689899999182671, 0.6836268999613822, 0.704293999937363, 0.7170974999899045, 0.7350861999439076, 0.7503448999486864, 0.7686583999311551, 0.782986499951221, 0.8007417999906465, 0.8173289999831468, 0.8380546999396756, 0.8519672999391332, 0.8701432999223471, 0.8829521998995915, 0.901830599992536, 0.9174654999515042, 0.9368048999458551, 0.950416799983941, 0.9688384999753907, 0.9846129999496043, 1.0018950999947265, 1.0170933000044897]
pilot_s;3;6;0;1;False;1000;True;;8;-149.66299298934516;drag;L;-6.9732885;-4.4504323;0;-147.45;8.27;1.0822660000994802;1.0823260999750346;1683804027.7644637;1683804027.7824647;1683804028.537667;1683804029.038295;1683804030.019938;1683804031.1019266;[0.0, 0.0, 0.0, 0.0, 0.0, 0.0, 0.0, 0.0, 0.0, 0.0, 0.0, 0.0, 0.0, 0.0, 0.0, 0.0, 0.0, 0.0, 0.0, 0.0, 0.0, 0.0, 0.0, 0.0, 0.0, 0.0, 0.0, 0.0, 0.0, 0.0, 0.0, 0.0, 0.0, 0.0, 0.0, 0.0, 0.0, -0.36850712, -1.5874153, -3.0047503, -5.2724867, -6.4630475, -7.0583286, -7.285102, -7.341796, -7.3701425, -7.426836, -7.426836, -7.426836, -7.3701425, -7.2000623, -7.1150217, -7.086675, -7.029982, -7.0016356, -7.0016356, -6.9732885, -6.9732885, -6.9732885, -6.9732885, -6.9732885, -6.9732885, -6.9732885, -6.9732885, -6.9732885];[0.0, 0.0, 0.0, 0.0, 0.0, 0.0, 0.0, 0.0, 0.0, 0.0, 0.0, 0.0, 0.0, 0.0, 0.0, 0.0, 0.0, 0.0, 0.0, 0.0, 0.0, 0.0, 0.0, 0.0, 0.0, 0.0, 0.0, 0.0, 0.0, 0.0, 0.0, 0.0, 0.0, 0.0, 0.0, 0.0, 0.0, -0.36850712, -1.417335, -2.5512033, -4.1386185, -4.818939, -5.0740595, -5.130753, -5.130753, -5.130753, -5.1024065, -5.1024065, -5.045713, -4.960673, -4.7905927, -4.6772056, -4.5921655, -4.5354724, -4.5071254, -4.5071254, -4.478779, -4.478779, -4.4504323, -4.4504323, -4.4504323, -4.4504323, -4.4504323, -4.4504323, -4.4504323];[0.004589900025166571, 0.020165699999779463, 0.034270299947820604, 0.051785800023935735, 0.06995120004285127, 0.08560999995097518, 0.10260099999140948, 0.11921969999093562, 0.13518240000121295, 0.15281110000796616, 0.16874360002111644, 0.1867179999826476, 0.2003448000177741, 0.21886270004324615, 0.23394259996712208, 0.2522629000013694, 0.26834169996436685, 0.2855272999731824, 0.3017713000299409, 0.3179905000142753, 0.33445770002435893, 0.3511800999986008, 0.36654059996362776, 0.3862777999602258, 0.40018350002355874, 0.41906740004196763, 0.4340183000313118, 0.4513669000007212, 0.46795690001454204, 0.4848643000004813, 0.500770999933593, 0.5180283000227064, 0.5334225000115111, 0.5513618999393657, 0.5670786999398842, 0.5850174999795854, 0.6001507999608293, 0.6182362999534234, 0.6345523999771103, 0.6509972999338061, 0.670443500042893, 0.6858921999810264, 0.7001078999601305, 0.7201483999378979, 0.7361037000082433, 0.7511411999585107, 0.7672139999922365, 0.7854306999361143, 0.8002608999377117, 0.8181620000395924, 0.8364628000417724, 0.8507746999384835, 0.8681418999331072, 0.8840482999803498, 0.9005545999389142, 0.9167855000123382, 0.9331773000303656, 0.9513535000151023, 0.9671816000482067, 0.9848934999899939, 0.9995098999934271, 1.017848499934189, 1.033806400024332, 1.0517748999409378, 1.0674128000391647]
pilot_s;4;6;0;1;False;3000;True;;8;-36.36476450559984;drag;L;6.774862;-4.5921655;0;-34.13;8.18;1.1527138999663293;1.1529224999248981;1683804032.0032704;1683804032.0153618;1683804032.7703695;1683804033.2714636;1683804036.2690258;1683804037.4223976;[0.0, 0.0, 0.0, 0.0, 0.0, 0.0, 0.0, 0.0, 0.0, 0.0, 0.0, 0.0, 0.0, 0.0, 0.0, 0.0, 0.0, 0.0, 0.0, 0.0, 0.0, 0.0, 0.0, 0.0, 0.0, 0.0, 0.0, 0.0, 0.0, 0.0, 0.0, 1.2189082, 1.7574955, 2.0976558, 2.2393894, 2.4378164, 2.5512033, 2.6362433, 2.7496302, 2.9764037, 3.2882173, 3.798458, 4.110272, 4.422086, 4.563819, 4.648859, 4.818939, 4.960673, 5.045713, 5.1591, 5.2441397, 5.3575263, 5.4425664, 5.5843005, 5.75438, 6.2079277, 6.434701, 6.548088, 6.633128, 6.6614747, 6.6898212, 6.7181687, 6.7465153, 6.774862, 6.774862, 6.774862, 6.774862, 6.774862, 6.774862];[0.0, 0.0, 0.0, 0.0, 0.0, 0.0, 0.0, 0.0, 0.0, 0.0, 0.0, 0.0, 0.0, 0.0, 0.0, 0.0, 0.0, 0.0, 0.0, 0.0, 0.0, 0.0, 0.0, 0.0, 0.0, 0.0, 0.0, 0.0, 0.0, 0.0, 0.0, -0.87874776, -1.1622148, -1.3889884, -1.5307219, -1.6441087, -1.7574955, -1.8425356, -1.9275757, -2.1543493, -2.4378164, -2.8630168, -3.0897903, -3.316564, -3.4299507, -3.4866443, -3.5716846, -3.6000311, -3.6000311, -3.6283777, -3.6283777, -3.6283777, -3.6567245, -3.713418, -3.8268046, -4.1386185, -4.3086987, -4.3937387, -4.4504323, -4.478779, -4.5071254, -4.5354724, -4.563819, -4.563819, -4.5921655, -4.5921655, -4.5921655, -4.5921655, -4.5921655];[0.0033939999993890524, 0.018514399998821318, 0.035178399994038045, 0.05063670000527054, 0.06873830000404269, 0.0836207999382168, 0.10163539997301996, 0.11776259995531291, 0.13498460000846535, 0.15108079998753965, 0.16842300002463162, 0.18431949999649078, 0.2016538999741897, 0.21722310001496226, 0.2337161999894306, 0.25133789994288236, 0.26777819998096675, 0.2852640999481082, 0.30178889993112534, 0.3172806999646127, 0.33464699995238334, 0.3525186999468133, 0.3690414000302553, 0.3854328999295831, 0.40334850002545863, 0.41774599999189377, 0.4345725999446586, 0.45154299994464964, 0.4689296999713406, 0.4841812999220565, 0.5007447999669239, 0.5163769000209868, 0.5358842000132427, 0.5509051999542862, 0.567376899998635, 0.5834442999912426, 0.6006664999295026, 0.6177181999664754, 0.6337954000337049, 0.6505169000010937, 0.6668408999685198, 0.6834779999917373, 0.7015666000079364, 0.7174378000199795, 0.7351814999710768, 0.7517220999579877, 0.767380699981004, 0.7843737000366673, 0.8010362000204623, 0.8167350000003353, 0.8362107999855652, 0.8502805000171065, 0.867464300012216, 0.8838829000014812, 0.9010592999402434, 0.9183311000233516, 0.9345928999828175, 0.950785499997437, 0.9701615999219939, 0.9843981999438256, 1.0024494000244886, 1.0170402999501675, 1.0348478999221697, 1.050909399986267, 1.0690404999768361, 1.0841620999854058, 1.1002783000003546, 1.116059900028631, 1.1346628000028431]
pilot_s;5;6;0;1;False;1000;True;;8;-112.51198389434282;drag;L;-3.0047503;-6.378008;0;-115.23;7.05;1.1521840000059456;1.152302599977702;1683804038.1700563;1683804038.1823845;1683804038.936687;1683804039.436994;1683804040.4186544;1683804041.5701687;[0.0, 0.0, 0.0, 0.0, 0.0, 0.0, 0.0, 0.0, 0.0, 0.0, 0.0, 0.0, 0.0, 0.0, 0.0, 0.0, 0.0, 0.0, 0.0, 0.0, 0.0, 0.0, 0.0, 0.0, 0.0, 0.0, 0.0, 0.0, 0.0, 0.0, 0.0, 0.0, 0.0, 0.0, 0.0, 0.0, 0.0, -1.0488279, -1.2472548, -1.7291489, -2.0409625, -2.2677362, -2.4094696, -2.5228565, -2.57955, -2.6078966, -2.6078966, -2.6078966, -2.66459, -2.66459, -2.66459, -2.66459, -2.66459, -2.6929367, -2.7496302, -2.83467, -2.83467, -2.9197102, -2.9197102, -2.948057, -2.9764037, -2.9764037, -2.9764037, -2.9764037, -2.9764037, -3.0047503, -3.0047503, -3.0047503, -3.0047503];[0.0, 0.0, 0.0, 0.0, 0.0, 0.0, 0.0, 0.0, 0.0, 0.0, 0.0, 0.0, 0.0, 0.0, 0.0, 0.0, 0.0, 0.0, 0.0, 0.0, 0.0, 0.0, 0.0, 0.0, 0.0, 0.0, 0.0, 0.0, 0.0, 0.0, 0.0, 0.0, 0.0, 0.0, 0.0, 0.0, 0.0, -1.7574955, -2.1260026, -3.1181371, -3.7417645, -4.110272, -4.3937387, -4.563819, -4.620512, -4.6772056, -4.7055526, -4.7055526, -4.762246, -4.762246, -4.7905927, -4.875633, -4.960673, -5.0740595, -5.3575263, -5.811074, -5.924461, -6.1228876, -6.2079277, -6.264621, -6.321315, -6.3496614, -6.3496614, -6.378008, -6.378008, -6.378008, -6.378008, -6.378008, -6.378008];[0.004394200048409402, 0.01860320009291172, 0.03490339999552816, 0.05265590001363307, 0.06937420007307082, 0.08604189998004586, 0.10191389999818057, 0.119204799993895, 0.13523760007228702, 0.1521306000649929, 0.16837289999239147, 0.18599860009271652, 0.20180300006177276, 0.2197397000854835, 0.23460480000358075, 0.25275159999728203, 0.2685584999853745, 0.28513470001053065, 0.30179390008561313, 0.31905370007734746, 0.3350298000732437, 0.35272090008948, 0.36850340000819415, 0.38614000007510185, 0.40118400007486343, 0.41806490009184927, 0.43576130003202707, 0.4518803000682965, 0.4683886000420898, 0.4864445000421256, 0.5013459000037983, 0.5198517000535503, 0.5343696000054479, 0.5522118000080809, 0.5685562000144273, 0.5850581000559032, 0.6028065000427887, 0.6208792000543326, 0.6340829000109807, 0.6517581000225618, 0.6683730999939144, 0.6857758000260219, 0.701009500073269, 0.7178788000019267, 0.7348342000041157, 0.7512665999820456, 0.7703825000207871, 0.7857190000358969, 0.8010363000212237, 0.819824600010179, 0.8348139000590891, 0.8543872000882402, 0.8688290000427514, 0.8859507000306621, 0.9019705000100657, 0.921251600026153, 0.9346792000578716, 0.9516941000474617, 0.9696736000478268, 0.9849662000779063, 1.003404000075534, 1.0178388999775052, 1.035504800034687, 1.0534430000698194, 1.0674163000658154, 1.0854782999958843, 1.1009184999857098, 1.1193772000260651, 1.1342324999859557]
pilot_s;6;6;0;1;False;1000;False;;8;-52.34721749471794;drag;L;nan;nan;0;nan;nan;0.0021294000325724483;0.002193799940869212;1683804042.2933714;1683804042.2985084;1683804043.05146;1683804043.536698;1683804043.5375059;1683804043.53964;[];[];[]
pilot_s;6;6;0;1;False;1000;True;;8;28.5021172138145;drag;L;7.0016356;3.7417645;0;28.12;7.94;1.3328842999180779;1.333116800058633;1683804044.1075037;1683804044.114629;1683804044.8701396;1683804045.3708875;1683804046.3517973;1683804047.684742;[0.0, 0.0, 0.0, 0.0, 0.0, 0.0, 0.0, 0.0, 0.0, 0.0, 0.0, 0.0, 0.0, 0.0, 0.0, 0.0, 0.0, 0.0, 0.0, 0.0, 0.0, 0.0, 0.0, 0.0, 0.0, 1.2472548, 1.984269, 2.6929367, 3.0330973, 3.4299507, 3.770111, 3.996885, 4.1386185, 4.3086987, 4.4504323, 4.620512, 5.2724867, 5.66934, 6.0661945, 6.1795807, 6.2362742, 6.292968, 6.321315, 6.3496614, 6.378008, 6.4630475, 6.491395, 6.548088, 6.6047816, 6.888248, 7.1717157, 7.313449, 7.426836, 7.483529, 7.540222, 7.5685697, 7.5685697, 7.596916, 7.6252627, 7.6252627, 7.596916, 7.540222, 7.5118756, 7.483529, 7.483529, 7.4551826, 7.3984895, 7.3701425, 7.313449, 7.285102, 7.228409, 7.2000623, 7.1717157, 7.1150217, 7.086675, 7.029982, 7.0016356, 7.0016356, 7.0016356, 7.0016356];[0.0, 0.0, 0.0, 0.0, 0.0, 0.0, 0.0, 0.0, 0.0, 0.0, 0.0, 0.0, 0.0, 0.0, 0.0, 0.0, 0.0, 0.0, 0.0, 0.0, 0.0, 0.0, 0.0, 0.0, 0.0, 0.5102406, 0.85040104, 1.0771747, 1.2189082, 1.3889884, 1.5307219, 1.6441087, 1.7574955, 1.899229, 1.984269, 2.1260026, 2.6078966, 2.9197102, 3.1748307, 3.2598708, 3.2882173, 3.3449106, 3.3449106, 3.3732576, 3.3732576, 3.4016042, 3.4299507, 3.4582977, 3.514991, 3.6850712, 3.8551514, 3.9401915, 3.968538, 3.996885, 4.0535784, 4.0535784, 4.081925, 4.081925, 4.081925, 4.081925, 4.081925, 4.0535784, 4.0535784, 4.025232, 4.025232, 3.996885, 3.996885, 3.9401915, 3.911845, 3.8834982, 3.8551514, 3.8268046, 3.8268046, 3.798458, 3.770111, 3.7417645, 3.7417645, 3.7417645, 3.7417645, 3.7417645];[0.004215699969790876, 0.018460300052538514, 0.0349168999819085, 0.05210169998463243, 0.06726659997366369, 0.08534560003317893, 0.10067610000260174, 0.11790110007859766, 0.13426139997318387, 0.15092470007948577, 0.1684508000034839, 0.18649960006587207, 0.20124259998556226, 0.21840690006501973, 0.23410050000529736, 0.2516079000197351, 0.2676134000066668, 0.2849754000781104, 0.30118499998934567, 0.3171753999777138, 0.3344523999840021, 0.35074620007071644, 0.36804279999341816, 0.38476440007798374, 0.3994787000119686, 0.4183538999641314, 0.4347342000110075, 0.4532811000244692, 0.46873570000752807, 0.48368279996793717, 0.5009583999635652, 0.5183131999801844, 0.5341409000102431, 0.5531397999729961, 0.5680216000182554, 0.5855416000122204, 0.6021599000087008, 0.6185312999878079, 0.6345329000614583, 0.6524042000528425, 0.6686230000341311, 0.6866026000352576, 0.7014953000470996, 0.7207627000752836, 0.7347005000337958, 0.7522822000319138, 0.7692489000037313, 0.7855986000504345, 0.8007495000492781, 0.8208436999702826, 0.8353147000307217, 0.8508741999976337, 0.8675694999983534, 0.8846086000557989, 0.9016419000690803, 0.9182226000120863, 0.9359093999955803, 0.9530902999686077, 0.9670234000077471, 0.9855193999828771, 1.001475700060837, 1.0181765999877825, 1.0340811000205576, 1.05245289998129, 1.0680106000509113, 1.0852773999795318, 1.10057820007205, 1.1188907000469044, 1.1365007000276819, 1.155378399998881, 1.1684221000177786, 1.1849178000120446, 1.1999937000218779, 1.218823999981396, 1.2337665000231937, 1.251403299975209, 1.2691538999788463, 1.283796500065364, 1.3009169000433758, 1.3185988999903202]
pilot_s;7;6;0;1;False;3000;True;;8;-39.95780459388556;drag;L;5.4709134;-4.932326;0;-42.04;7.37;1.4330862000351772;1.4331716999877244;1683804048.4636106;1683804048.4820096;1683804049.2365282;1683804049.7382514;1683804052.7372048;1683804054.1705484;[0.0, 0.0, 0.0, 0.0, 0.0, 0.0, 0.0, 0.0, 0.0, 0.0, 0.0, 0.0, 0.0, 0.0, 0.0, 0.0, 0.0, 0.0, 0.0, 0.0, 0.0, 0.0, 0.0, 0.0, 0.0, 0.0, 0.0, 0.0, 0.0, 0.6803208, 1.332295, 1.6724553, 2.0693092, 2.2393894, 2.3527763, 2.4945097, 2.66459, 2.83467, 3.0614438, 3.316564, 3.4866443, 3.6567245, 3.713418, 3.713418, 3.770111, 3.798458, 3.8268046, 3.8551514, 3.8551514, 3.8834982, 3.911845, 3.9401915, 4.0535784, 4.2803516, 4.3937387, 4.4504323, 4.5071254, 4.563819, 4.5921655, 4.620512, 4.6772056, 4.762246, 4.818939, 4.932326, 5.017366, 5.1874466, 5.300833, 5.3575263, 5.3858733, 5.4425664, 5.4709134, 5.4709134, 5.4709134, 5.4709134, 5.4709134, 5.4709134, 5.4709134, 5.4709134, 5.4709134, 5.4709134, 5.4709134, 5.4709134, 5.4709134, 5.4709134, 5.4709134, 5.4709134];[0.0, 0.0, 0.0, 0.0, 0.0, 0.0, 0.0, 0.0, 0.0, 0.0, 0.0, 0.0, 0.0, 0.0, 0.0, 0.0, 0.0, 0.0, 0.0, 0.0, 0.0, 0.0, 0.0, 0.0, 0.0, 0.0, 0.0, 0.0, 0.0, -0.79370767, -1.332295, -1.6724553, -2.012616, -2.0693092, -2.1260026, -2.182696, -2.2677362, -2.381123, -2.57955, -2.8063235, -3.0047503, -3.2315238, -3.3732576, -3.4299507, -3.4866443, -3.5716846, -3.6283777, -3.6850712, -3.713418, -3.7417645, -3.798458, -3.8551514, -3.996885, -4.3086987, -4.4504323, -4.5354724, -4.5921655, -4.620512, -4.6772056, -4.6772056, -4.7055526, -4.733899, -4.733899, -4.7905927, -4.7905927, -4.847286, -4.875633, -4.875633, -4.9039793, -4.932326, -4.932326, -4.932326, -4.932326, -4.932326, -4.932326, -4.932326, -4.932326, -4.932326, -4.932326, -4.932326, -4.932326, -4.932326, -4.932326, -4.932326, -4.932326, -4.932326];[0.0041195000521838665, 0.015876100049354136, 0.03473339998163283, 0.04900110000744462, 0.06712110002990812, 0.08215600007679313, 0.09954450000077486, 0.11597160005476326, 0.13439330004621297, 0.1505725000752136, 0.166956500033848, 0.18332680000457913, 0.19956430001184344, 0.2155528999865055, 0.23342209996189922, 0.24939820007421076, 0.2667071999749169, 0.28152429999317974, 0.298737799981609, 0.31552529998589307, 0.3322945999680087, 0.349145199987106, 0.36594599997624755, 0.38174740003887564, 0.3983318000100553, 0.4147433000616729, 0.4333204000722617, 0.44846840004902333, 0.4652819000184536, 0.48247469996567816, 0.5030488000484183, 0.5151647999882698, 0.5336833000183105, 0.5489117000252008, 0.5665608000708744, 0.5816388999810442, 0.6010682999622077, 0.615374100045301, 0.6329915999667719, 0.6491921000415459, 0.6678137000417337, 0.6846063999691978, 0.6988835000665858, 0.715578900068067, 0.7329670999897644, 0.749138200073503, 0.7664981000125408, 0.7828186000697315, 0.799760999972932, 0.8165660999948159, 0.8323462000116706, 0.8488737000152469, 0.8685457999818027, 0.8854945000493899, 0.8994737999746576, 0.9153047000290826, 0.9329966000514105, 0.9513070000102744, 0.9655797000741586, 0.981523200054653, 0.99910000001546, 1.018485900014639, 1.0340563000645489, 1.0491202999837697, 1.0671377000398934, 1.0855861000018194, 1.101122200023383, 1.115457999985665, 1.1327974000014365, 1.1502199000678957, 1.165936000063084, 1.1818010000279173, 1.2000139000592753, 1.2159388000145555, 1.233726100064814, 1.249104000045918, 1.267752300016582, 1.2823524000123143, 1.3004192999796942, 1.3157875000033528, 1.334739400073886, 1.3494988000020385, 1.367188600008376, 1.3832039000699297, 1.4013746000127867, 1.4161609000293538]
pilot_s;8;6;0;1;False;3000;True;;8;-104.58289863782754;drag;L;-2.182696;-6.1228876;0;-109.62;6.5;1.2999947000062093;1.3000757000409067;1683804054.894038;1683804054.9146383;1683804055.6683846;1683804056.1708114;1683804059.1697316;1683804060.469055;[0.0, 0.0, 0.0, 0.0, 0.0, 0.0, 0.0, 0.0, 0.0, 0.0, 0.0, 0.0, 0.0, 0.0, 0.0, 0.0, 0.0, 0.0, 0.0, 0.0, 0.0, 0.0, 0.0, 0.0, 0.0, 0.0, 0.0, 0.0, 0.0, 0.0, -0.19842692, -0.28346702, -0.3401604, -0.39685383, -0.4535472, -0.53858733, -0.59528077, -0.65197414, -0.79370767, -0.9070944, -1.0488279, -1.1622148, -1.332295, -1.5023751, -1.6441087, -1.7008021, -1.7574955, -1.8141888, -1.8425356, -1.8425356, -1.8425356, -1.8425356, -1.899229, -1.9275757, -1.9559225, -2.012616, -2.012616, -2.0409625, -2.0693092, -2.0693092, -2.0976558, -2.0976558, -2.0976558, -2.0976558, -2.0976558, -2.0976558, -2.1260026, -2.1260026, -2.1543493, -2.182696, -2.182696, -2.182696, -2.182696, -2.182696, -2.182696, -2.182696, -2.182696, -2.182696];[0.0, 0.0, 0.0, 0.0, 0.0, 0.0, 0.0, 0.0, 0.0, 0.0, 0.0, 0.0, 0.0, 0.0, 0.0, 0.0, 0.0, 0.0, 0.0, 0.0, 0.0, 0.0, 0.0, 0.0, 0.0, 0.0, 0.0, 0.0, 0.0, -0.0566934, -0.36850712, -0.5102406, -0.59528077, -0.6803208, -0.79370767, -0.9070944, -1.0488279, -1.2756016, -1.7008021, -2.012616, -2.381123, -2.7212832, -3.0614438, -3.5716846, -3.798458, -3.9401915, -4.081925, -4.2803516, -4.422086, -4.563819, -4.733899, -4.932326, -5.1874466, -5.3575263, -5.4992604, -5.6409936, -5.697687, -5.75438, -5.782727, -5.811074, -5.8394203, -5.8677673, -5.8677673, -5.896114, -5.896114, -5.924461, -5.9528074, -6.0095005, -6.0095005, -6.0661945, -6.094541, -6.094541, -6.1228876, -6.1228876, -6.1228876, -6.1228876, -6.1228876, -6.1228876];[0.0042007999727502465, 0.017030299990437925, 0.03423730004578829, 0.04985920002218336, 0.06802100001368672, 0.08360889996401966, 0.10087369999382645, 0.117440199945122, 0.13458489999175072, 0.15098929998930544, 0.16797299997415394, 0.18382020003627986, 0.20042450004257262, 0.21688279998488724, 0.23446619999594986, 0.2505972000071779, 0.2678075999720022, 0.2832156999502331, 0.30007789994124323, 0.3163086000131443, 0.33426849998068064, 0.3492269000271335, 0.3677645999705419, 0.3843093999894336, 0.40069359994959086, 0.417815100052394, 0.43435640004463494, 0.45039180002640933, 0.4674300999613479, 0.48287089995574206, 0.49995069997385144, 0.5154066999675706, 0.53328940004576, 0.5494710999773815, 0.5661758000496775, 0.5831608000444248, 0.5997600000118837, 0.6174241999397054, 0.634213599958457, 0.6497627999633551, 0.6670004000188783, 0.6829959000460804, 0.7002071000169963, 0.7158965000417084, 0.7347188999410719, 0.7521286000264809, 0.7682534999912605, 0.7828897000290453, 0.8002436000388116, 0.8168622000375763, 0.8350419000489637, 0.8499127000104636, 0.8680388999637216, 0.882391499937512, 0.9015644999453798, 0.918584999977611, 0.9346393999876454, 0.9507434000261128, 0.9710615000221878, 0.985401300014928, 1.0005989000201225, 1.0165984999621287, 1.033334800042212, 1.052363199996762, 1.0673962000291795, 1.0833196999737993, 1.1007164999609813, 1.1186673999764025, 1.1339741999981925, 1.1495624999515712, 1.166825299966149, 1.1841427000472322, 1.2016993999714032, 1.2170429000398144, 1.232739600003697, 1.2520572999492288, 1.267719900002703, 1.2835221999557689]
pilot_s;9;6;0;1;False;1000;True;;8;-6.928507518166556;drag;L;8.107157;-1.5023751;0;-10.5;8.25;1.1685752000194043;1.1686480999924242;1683804061.302496;1683804061.3135126;1683804062.0693831;1683804062.5692854;1683804063.550905;1683804064.719528;[0.0, 0.0, 0.0, 0.0, 0.0, 0.0, 0.0, 0.0, 0.0, 0.0, 0.0, 0.0, 0.0, 0.0, 0.0, 0.0, 0.0, 0.0, 0.0, 0.0, 0.0, 0.0, 0.0, 0.0, 0.0, 0.0, 0.0, 0.0, 0.0, 0.0, 0.0, 0.0, 1.2189082, 2.4945097, 3.1181371, 3.6283777, 3.9401915, 4.110272, 4.252005, 4.422086, 4.648859, 4.818939, 5.017366, 5.1874466, 5.3858733, 6.037847, 6.378008, 6.6614747, 6.7181687, 6.774862, 6.8032084, 6.831555, 6.831555, 6.8599014, 6.888248, 6.888248, 6.9165955, 6.9732885, 7.0583286, 7.1717157, 7.3701425, 7.7386494, 7.880383, 7.9654226, 8.050464, 8.07881, 8.107157, 8.107157, 8.107157, 8.107157];[0.0, 0.0, 0.0, 0.0, 0.0, 0.0, 0.0, 0.0, 0.0, 0.0, 0.0, 0.0, 0.0, 0.0, 0.0, 0.0, 0.0, 0.0, 0.0, 0.0, 0.0, 0.0, 0.0, 0.0, 0.0, 0.0, 0.0, 0.0, 0.0, 0.0, 0.0, 0.0, -0.3118137, -0.6803208, -0.8220543, -0.93544114, -1.0204812, -1.0488279, -1.0771747, -1.1338681, -1.1622148, -1.2189082, -1.2472548, -1.3039483, -1.3606416, -1.5307219, -1.6157619, -1.6724553, -1.7008021, -1.7008021, -1.7008021, -1.6441087, -1.6157619, -1.5874153, -1.5590686, -1.5590686, -1.5307219, -1.5307219, -1.5307219, -1.5307219, -1.5307219, -1.5307219, -1.5590686, -1.5590686, -1.5590686, -1.5307219, -1.5023751, -1.5023751, -1.5023751, -1.5023751];[0.004439900047145784, 0.020940000074915588, 0.03512170002795756, 0.052306100027635694, 0.06827100005466491, 0.08645519998390228, 0.10176570003386587, 0.11965880007483065, 0.1350170000223443, 0.1521360999904573, 0.16828019998501986, 0.18534329999238253, 0.20173450000584126, 0.2192480000667274, 0.23434139997698367, 0.2535737999714911, 0.26869439997244626, 0.28636670007836074, 0.302246900042519, 0.320286100031808, 0.33570359996519983, 0.3528781000059098, 0.3697284000227228, 0.3867192000616342, 0.40177980007138103, 0.4191934000700712, 0.4350832999916747, 0.4533008000580594, 0.46797620004508644, 0.4855422000400722, 0.5016583000542596, 0.5190609999699518, 0.5368666000431404, 0.5556139000691473, 0.5703962000552565, 0.5848898000549525, 0.6010122000006959, 0.6195662000682205, 0.634870000067167, 0.6516281999647617, 0.6689789000665769, 0.6866116999881342, 0.7015860000392422, 0.7195552000775933, 0.7344981000060216, 0.752500900067389, 0.7695999999996275, 0.7893013000721112, 0.8026193999685347, 0.8195621999911964, 0.8358105999650434, 0.8523979000747204, 0.8682093999814242, 0.8860665999818593, 0.903213300043717, 0.9186531000304967, 0.935164500027895, 0.9528042000019923, 0.9685104000382125, 0.9858298000181094, 1.002110300003551, 1.0205116000724956, 1.0349356000078842, 1.0516448999987915, 1.0679215000709519, 1.0863008999731392, 1.1015889999689534, 1.1184666000772268, 1.1345028000650927, 1.152445700019598]
pilot_s;0;7;0;1;False;1000;True;;8;74.36856323011929;drag;L;2.2393894;6.6614747;0;71.42;7.03;1.5657463000388816;1.5659231999889016;1683804070.8893707;1683804070.8973756;1683804071.6519198;1683804072.1531212;1683804073.1362357;1683804074.7020085;[0.0, 0.0, 0.0, 0.0, 0.0, 0.0, 0.0, 0.0, 0.0, 0.0, 0.0, 0.0, 0.0, 0.0, 0.0, 0.0, 0.0, 0.0, 0.0, 0.0, 0.0, 0.0, 0.0, 0.0, 0.0, 0.0, 0.0, 0.0, 0.0, 0.0, 0.0, 0.0, 0.0, 0.0, 0.0, 0.0, 0.0, 0.0, 0.0, 0.0, 0.0, 0.73701423, 0.87874776, 0.9070944, 0.93544114, 0.96378785, 0.96378785, 0.9921345, 1.0771747, 1.2189082, 1.3889884, 1.5874153, 1.7291489, 1.899229, 2.012616, 2.0976558, 2.1543493, 2.1543493, 2.1543493, 2.182696, 2.2677362, 2.4945097, 2.8630168, 2.948057, 3.0047503, 3.0047503, 3.0047503, 3.0047503, 3.0047503, 3.0047503, 3.0047503, 3.0047503, 3.0047503, 2.9764037, 2.948057, 2.9197102, 2.8630168, 2.7212832, 2.6362433, 2.4945097, 2.4378164, 2.4094696, 2.381123, 2.3244295, 2.2960827, 2.2960827, 2.2677362, 2.2677362, 2.2393894, 2.2393894, 2.2393894, 2.2393894, 2.2393894, 2.2393894];[0.0, 0.0, 0.0, 0.0, 0.0, 0.0, 0.0, 0.0, 0.0, 0.0, 0.0, 0.0, 0.0, 0.0, 0.0, 0.0, 0.0, 0.0, 0.0, 0.0, 0.0, 0.0, 0.0, 0.0, 0.0, 0.0, 0.0, 0.0, 0.0, 0.0, 0.0, 0.0, 0.0, 0.0, 0.0, 0.0, 0.0, 0.0, 0.0, 0.0, 0.0, 1.4456817, 1.7858423, 1.9559225, 2.0409625, 2.1260026, 2.182696, 2.2677362, 2.5228565, 2.8913634, 3.2882173, 3.7417645, 4.0535784, 4.3086987, 4.5354724, 4.6772056, 4.7905927, 4.847286, 4.875633, 4.9039793, 5.1591, 5.924461, 7.086675, 7.341796, 7.426836, 7.483529, 7.483529, 7.5118756, 7.540222, 7.540222, 7.540222, 7.540222, 7.540222, 7.540222, 7.540222, 7.540222, 7.5118756, 7.285102, 7.2000623, 7.029982, 6.944942, 6.888248, 6.8599014, 6.774862, 6.7465153, 6.7181687, 6.6898212, 6.6898212, 6.6614747, 6.6614747, 6.6614747, 6.6614747, 6.6614747, 6.6614747];[0.0036289000418037176, 0.01783689996227622, 0.03291109995916486, 0.04980719997547567, 0.06525850004982203, 0.08326740004122257, 0.09925840003415942, 0.11624390003271401, 0.13279129995498806, 0.14988140005152673, 0.16524560004472733, 0.18312820000573993, 0.19855550001375377, 0.21608030004426837, 0.23272690002340823, 0.24938129994552583, 0.2650938000297174, 0.2830363999819383, 0.298311399994418, 0.3167630999814719, 0.33158200001344085, 0.3493721999693662, 0.3657867000438273, 0.38291279994882643, 0.39974400005303323, 0.4168025000253692, 0.4323593999724835, 0.45009830000344664, 0.4659514999948442, 0.4830608000047505, 0.4995930000441149, 0.5166108999401331, 0.5328202999662608, 0.5488494000164792, 0.5659350999630988, 0.5840678999666125, 0.5994804999791086, 0.6158661999506876, 0.6324286999879405, 0.648995199939236, 0.6652406000066549, 0.6851558999624103, 0.6986698999535292, 0.7153333999449387, 0.7313181000063196, 0.7527516999980435, 0.7670286999782547, 0.7825360000133514, 0.7985955999465659, 0.8163241000147536, 0.8327269000001252, 0.8504200000315905, 0.8645697999745607, 0.8833562999498099, 0.899396299966611, 0.9170585999963805, 0.9328155999537557, 0.9479897000128403, 0.9659728000406176, 0.983630400034599, 1.000112200039439, 1.0147103000199422, 1.032667199964635, 1.048732899944298, 1.0664185000350699, 1.0813651999924332, 1.0965904999757186, 1.115281100035645, 1.1318697000388056, 1.1497066000010818, 1.1647863000398502, 1.1834371000295505, 1.1984720999607816, 1.2165939999977127, 1.2315377000486478, 1.2500186000252143, 1.2651942999800667, 1.28478330001235, 1.2982542000245303, 1.3144134000176564, 1.3323499000398442, 1.3484506000531837, 1.3661567999515682, 1.3813048000447452, 1.3986441999441013, 1.4169114000396803, 1.4324213999789208, 1.448488499969244, 1.4651071999687701, 1.4816387000028044, 1.498342699953355, 1.515573799959384, 1.5314877999480814, 1.5488424999639392]
pilot_s;1;7;0;1;False;3000;True;;8;-74.06836855143138;drag;L;1.8708823;-6.264621;0;-73.37;6.54;1.29988730000332;1.2999683999223635;1683804075.6193292;1683804075.6313293;1683804076.3841083;1683804076.8857274;1683804079.884498;1683804081.183981;[0.0, 0.0, 0.0, 0.0, 0.0, 0.0, 0.0, 0.0, 0.0, 0.0, 0.0, 0.0, 0.0, 0.0, 0.0, 0.0, 0.0, 0.0, 0.0, 0.0, 0.0, 0.0, 0.0, 0.0, 0.0, 0.0, 0.0, 0.0, 0.0, 0.0, 0.3118137, 0.56693405, 0.85040104, 1.1055214, 1.3889884, 1.5590686, 1.7574955, 1.9275757, 2.0693092, 2.1543493, 2.211043, 2.2393894, 2.2677362, 2.2677362, 2.2960827, 2.2960827, 2.2960827, 2.2960827, 2.2960827, 2.2677362, 2.182696, 2.0409625, 1.9559225, 1.9275757, 1.899229, 1.8425356, 1.8141888, 1.8141888, 1.8141888, 1.8141888, 1.8141888, 1.8141888, 1.8141888, 1.8141888, 1.8141888, 1.8141888, 1.8141888, 1.8141888, 1.8141888, 1.8141888, 1.8141888, 1.8141888, 1.8141888, 1.8425356, 1.8425356, 1.8425356, 1.8708823, 1.8708823];[0.0, 0.0, 0.0, 0.0, 0.0, 0.0, 0.0, 0.0, 0.0, 0.0, 0.0, 0.0, 0.0, 0.0, 0.0, 0.0, 0.0, 0.0, 0.0, 0.0, 0.0, 0.0, 0.0, 0.0, 0.0, 0.0, 0.0, 0.0, 0.0, 0.0, -0.8220543, -1.332295, -1.7858423, -2.1543493, -2.6078966, -2.948057, -3.3732576, -3.8268046, -4.2236586, -4.563819, -4.6772056, -4.762246, -4.875633, -4.9039793, -4.9890194, -5.045713, -5.130753, -5.2441397, -5.300833, -5.41422, -5.5559535, -5.697687, -5.811074, -5.8677673, -5.924461, -5.9528074, -5.981154, -5.981154, -6.0095005, -6.037847, -6.037847, -6.0661945, -6.1228876, -6.1228876, -6.151234, -6.1795807, -6.2079277, -6.2362742, -6.264621, -6.264621, -6.264621, -6.264621, -6.264621, -6.264621, -6.264621, -6.264621, -6.264621, -6.264621];[0.004329499904997647, 0.018495599972084165, 0.03555119992233813, 0.05112289998214692, 0.06808809994254261, 0.08454999991226941, 0.1017527999356389, 0.1167161000194028, 0.13550679991021752, 0.15031479997560382, 0.16833669994957745, 0.18471729999873787, 0.2004762999713421, 0.21764709998387843, 0.2355257999151945, 0.25047329999506474, 0.26893239992205054, 0.28316419990733266, 0.3011590999085456, 0.317259099916555, 0.33453829993959516, 0.3509707999182865, 0.3683390999212861, 0.3837174999061972, 0.4005477000027895, 0.41665989998728037, 0.4340507999295369, 0.44994099996984005, 0.4679850999964401, 0.48470159992575645, 0.5009179000044242, 0.5167935999343172, 0.5346346999285743, 0.5502240000059828, 0.5684797000139952, 0.5824773999629542, 0.6020381000125781, 0.6178252999670804, 0.6347306999377906, 0.6499994000187144, 0.666724200011231, 0.683449300006032, 0.7019235999323428, 0.7164412999991328, 0.7337521999143064, 0.750891299918294, 0.768924199976027, 0.7853701999410987, 0.8007428999990225, 0.8174057999858633, 0.8356260999571532, 0.8505850000074133, 0.867121999966912, 0.884587200009264, 0.9000358999473974, 0.9183461999054998, 0.9363912999397144, 0.9507256000069901, 0.9686859999783337, 0.9878953999141231, 1.0007124999538064, 1.0174581999890506, 1.0361335999332368, 1.0492067999439314, 1.0679452000185847, 1.0829918999224901, 1.0994874999159947, 1.1161860999418423, 1.1339371999492869, 1.1492927999934182, 1.1672753000166267, 1.1832922999747097, 1.2001163999084383, 1.2176562999375165, 1.2353582999203354, 1.2499670999823138, 1.2676498999353498, 1.2839855999918655]
pilot_s;2;7;0;1;False;1000;True;;8;28.176834942532246;drag;L;6.378008;3.3732576;0;27.87;7.22;1.249690099968575;1.2497701999964193;1683804082.0292804;1683804082.0470119;1683804082.7987351;1683804083.2994702;1683804084.2834444;1683804085.533148;[0.0, 0.0, 0.0, 0.0, 0.0, 0.0, 0.0, 0.0, 0.0, 0.0, 0.0, 0.0, 0.0, 0.0, 0.0, 0.0, 0.0, 0.0, 0.0, 0.0, 0.0, 0.0, 0.0, 0.0, 0.0, 0.0, 0.0, 0.0, 0.0, 0.0, 0.0, 0.0, 0.0, 0.0, 0.0, 0.0, 0.9921345, 1.5874153, 2.0976558, 2.7212832, 2.948057, 3.0897903, 3.1748307, 3.2598708, 3.316564, 3.3449106, 3.4016042, 3.4582977, 3.7417645, 3.996885, 4.2236586, 4.422086, 4.5921655, 4.818939, 5.017366, 5.300833, 5.527607, 5.75438, 5.896114, 6.037847, 6.0661945, 6.1795807, 6.2362742, 6.292968, 6.292968, 6.3496614, 6.3496614, 6.378008, 6.378008, 6.378008, 6.378008, 6.378008, 6.378008, 6.378008, 6.378008];[0.0, 0.0, 0.0, 0.0, 0.0, 0.0, 0.0, 0.0, 0.0, 0.0, 0.0, 0.0, 0.0, 0.0, 0.0, 0.0, 0.0, 0.0, 0.0, 0.0, 0.0, 0.0, 0.0, 0.0, 0.0, 0.0, 0.0, 0.0, 0.0, 0.0, 0.0, 0.0, 0.0, 0.0, 0.0, 0.0, 0.4535472, 0.7086675, 0.96378785, 1.3039483, 1.4456817, 1.5023751, 1.5590686, 1.6157619, 1.6157619, 1.6441087, 1.6724553, 1.7291489, 1.9559225, 2.1543493, 2.3244295, 2.4378164, 2.5228565, 2.6078966, 2.6929367, 2.8063235, 2.9197102, 3.0330973, 3.0897903, 3.1748307, 3.1748307, 3.2315238, 3.2882173, 3.316564, 3.316564, 3.3449106, 3.3732576, 3.3732576, 3.3732576, 3.3732576, 3.3732576, 3.3732576, 3.3732576, 3.3732576, 3.3732576];[0.004469000035896897, 0.020228100009262562, 0.035500199999660254, 0.05214779998641461, 0.06987370003480464, 0.08483220008201897, 0.10225310001987964, 0.11923900002148002, 0.13441070006228983, 0.1536464000819251, 0.16869119997136295, 0.1863516999874264, 0.2022157000610605, 0.21827870002016425, 0.2345205000601709, 0.252165500074625, 0.26776660000905395, 0.2864918999839574, 0.30253670003730804, 0.31985770002938807, 0.3355841999873519, 0.352072500041686, 0.3686197000788525, 0.38582470000255853, 0.4010919000720605, 0.4185995999723673, 0.43464590003713965, 0.4522999000037089, 0.4686014000326395, 0.4855479000834748, 0.501018000068143, 0.5187827000627294, 0.5337519000750035, 0.5505793000338599, 0.5666185000445694, 0.584687800030224, 0.601219900068827, 0.6188805000856519, 0.6350462000118569, 0.6517659000819549, 0.667894700076431, 0.6841994000133127, 0.7015776999760419, 0.7200376000255346, 0.7338729000184685, 0.7514329000841826, 0.7690537000307813, 0.7843618000624701, 0.8001587999751791, 0.8187115000328049, 0.8334190000314265, 0.8518557000206783, 0.8684825000818819, 0.8844441000837833, 0.9012926999712363, 0.9185064000776038, 0.933498700032942, 0.950747900060378, 0.9668566000182182, 0.9878445999929681, 1.0001317000715062, 1.0182812999701127, 1.03472870006226, 1.0550665999762714, 1.0671362000284716, 1.0844530999893323, 1.102184500079602, 1.119673200068064, 1.1337179000256583, 1.1505705000599846, 1.1677613999927416, 1.1848192000761628, 1.200402499991469, 1.219273000024259, 1.2355665999930352]
pilot_s;3;7;0;1;False;3000;True;;8;-158.14309116064658;drag;L;-6.491395;-3.4866443;0;-151.76;7.37;1.166611999971792;1.1666731000877917;1683804086.3435273;1683804086.3626614;1683804087.1179905;1683804087.617653;1683804090.6176722;1683804091.7840958;[0.0, 0.0, 0.0, 0.0, 0.0, 0.0, 0.0, 0.0, 0.0, 0.0, 0.0, 0.0, 0.0, 0.0, 0.0, 0.0, 0.0, 0.0, 0.0, 0.0, 0.0, 0.0, 0.0, 0.0, 0.0, 0.0, 0.0, 0.0, 0.0, 0.0, 0.0, 0.0, 0.0, 0.0, 0.0, 0.0, 0.0, 0.0, 0.0, 0.0, 0.0, 0.0, -0.8220543, -1.984269, -3.0897903, -4.025232, -4.733899, -5.5559535, -6.0095005, -6.2362742, -6.321315, -6.378008, -6.4063544, -6.434701, -6.4630475, -6.4630475, -6.4630475, -6.4630475, -6.4630475, -6.4630475, -6.4630475, -6.491395, -6.491395, -6.491395, -6.491395, -6.491395, -6.491395, -6.491395, -6.491395, -6.491395];[0.0, 0.0, 0.0, 0.0, 0.0, 0.0, 0.0, 0.0, 0.0, 0.0, 0.0, 0.0, 0.0, 0.0, 0.0, 0.0, 0.0, 0.0, 0.0, 0.0, 0.0, 0.0, 0.0, 0.0, 0.0, 0.0, 0.0, 0.0, 0.0, 0.0, 0.0, 0.0, 0.0, 0.0, 0.0, 0.0, 0.0, 0.0, 0.0, 0.0, 0.0, 0.0, -0.65197414, -1.3889884, -2.012616, -2.4378164, -2.7496302, -3.0047503, -3.1748307, -3.2882173, -3.316564, -3.3449106, -3.3732576, -3.3732576, -3.3732576, -3.4016042, -3.4016042, -3.4299507, -3.4582977, -3.4582977, -3.4866443, -3.4866443, -3.4866443, -3.4866443, -3.4866443, -3.4866443, -3.4866443, -3.4866443, -3.4866443, -3.4866443];[0.0042171000968664885, 0.017128000035881996, 0.0347573000472039, 0.05044610006734729, 0.06834330002311617, 0.08350550010800362, 0.10131200007162988, 0.11812800006009638, 0.13392330007627606, 0.1508154000621289, 0.16825530002824962, 0.1844370000762865, 0.2012660000473261, 0.2173433001153171, 0.23548190004657954, 0.2521564000053331, 0.26815650006756186, 0.2846262000966817, 0.3011682000942528, 0.3174026000779122, 0.3348507001064718, 0.35054740007035434, 0.36726710002403706, 0.3845100000035018, 0.40052680007647723, 0.41595450008753687, 0.4350570000242442, 0.45164050010498613, 0.467909500002861, 0.48427040001843125, 0.5017658000579104, 0.5176213000668213, 0.5338169001042843, 0.5502217001048848, 0.5689067000057548, 0.583135100081563, 0.6014847001060843, 0.6178907001158223, 0.6346507000271231, 0.649265700019896, 0.6674454000312835, 0.6836034000152722, 0.7022275000344962, 0.7174024000996724, 0.7353710000170395, 0.7503732000477612, 0.7673227000050247, 0.7856661000987515, 0.8005422001006082, 0.8162485000211746, 0.8336111000971869, 0.8489406000589952, 0.8680063000647351, 0.8825341000920162, 0.9013503000605851, 0.9171990000177175, 0.9333677000831813, 0.9503531000809744, 0.9680410000728443, 0.9831259000347927, 1.0001951000886038, 1.0164970000041649, 1.032774200080894, 1.050327300094068, 1.067428300040774, 1.082764600054361, 1.1002362000290304, 1.116746800020337, 1.1336631000740454, 1.1503551000496373]
pilot_s;4;7;0;1;False;1000;True;;8;-20.19328418903179;drag;L;6.4063544;-2.83467;0;-23.87;7.01;1.46736700006295;1.4674354000017047;1683804092.5538259;1683804092.5618482;1683804093.3169744;1683804093.8181775;1683804094.8004963;1683804096.2676282;[0.0, 0.0, 0.0, 0.0, 0.0, 0.0, 0.0, 0.0, 0.0, 0.0, 0.0, 0.0, 0.0, 0.0, 0.0, 0.0, 0.0, 0.0, 0.0, 0.0, 0.0, 0.0, 0.0, 0.0, 0.0, 0.0, 0.0, 1.1055214, 1.5874153, 2.0976558, 2.211043, 2.6078966, 2.8630168, 3.1748307, 3.4582977, 3.996885, 4.3086987, 4.478779, 4.7055526, 4.818939, 5.045713, 5.130753, 5.2441397, 5.2724867, 5.2724867, 5.2724867, 5.2724867, 5.2724867, 5.2724867, 5.2724867, 5.32918, 5.5559535, 5.612647, 5.697687, 5.75438, 5.782727, 5.8677673, 5.896114, 5.924461, 5.924461, 5.924461, 5.924461, 5.924461, 5.924461, 5.924461, 5.924461, 5.924461, 5.924461, 5.924461, 5.924461, 5.924461, 5.924461, 5.924461, 5.924461, 5.924461, 5.924461, 5.924461, 6.1228876, 6.2362742, 6.292968, 6.3496614, 6.378008, 6.4063544, 6.4063544, 6.4063544, 6.4063544, 6.4063544, 6.4063544];[0.0, 0.0, 0.0, 0.0, 0.0, 0.0, 0.0, 0.0, 0.0, 0.0, 0.0, 0.0, 0.0, 0.0, 0.0, 0.0, 0.0, 0.0, 0.0, 0.0, 0.0, 0.0, 0.0, 0.0, 0.0, 0.0, 0.0, -0.5102406, -0.7086675, -0.96378785, -1.0488279, -1.2189082, -1.332295, -1.4456817, -1.5874153, -1.8141888, -1.9559225, -2.012616, -2.0693092, -2.1260026, -2.182696, -2.211043, -2.2393894, -2.2393894, -2.2393894, -2.2393894, -2.2393894, -2.2393894, -2.2393894, -2.2393894, -2.2677362, -2.381123, -2.4378164, -2.466163, -2.5228565, -2.5512033, -2.6362433, -2.66459, -2.66459, -2.66459, -2.66459, -2.66459, -2.66459, -2.66459, -2.66459, -2.66459, -2.66459, -2.66459, -2.66459, -2.66459, -2.66459, -2.66459, -2.66459, -2.66459, -2.66459, -2.66459, -2.66459, -2.7496302, -2.7779768, -2.83467, -2.83467, -2.83467, -2.83467, -2.83467, -2.83467, -2.83467, -2.83467, -2.83467];[0.00335719995200634, 0.017592799966223538, 0.03360460000112653, 0.05129350000061095, 0.06746679998468608, 0.0845098999561742, 0.10071150003932416, 0.11886659997981042, 0.1358223999850452, 0.15203350002411753, 0.16789309994783252, 0.18594889994710684, 0.2009550000075251, 0.2175769000314176, 0.23331130004953593, 0.2514402000233531, 0.26761069998610765, 0.28521640005055815, 0.3014429999748245, 0.3197657000273466, 0.3336315000196919, 0.350676600006409, 0.36645109998062253, 0.3856811999576166, 0.40055599994957447, 0.417205199948512, 0.4333075999747962, 0.4503963999450207, 0.46844359999522567, 0.487246899981983, 0.49933290004264563, 0.5183942000148818, 0.535072400001809, 0.5509574000025168, 0.5664168000221252, 0.585082900011912, 0.6010232999688014, 0.6185851000482216, 0.6366221000207588, 0.652011499973014, 0.6703409999608994, 0.6861045999685302, 0.7020037999609485, 0.717399499961175, 0.734255800023675, 0.7506141000194475, 0.7665428000036627, 0.7848660999443382, 0.7998907000292093, 0.8171878999564797, 0.8332141999853775, 0.850823299959302, 0.8682608000235632, 0.8846501000225544, 0.9007169000105932, 0.9181848999578506, 0.9345386000350118, 0.9520040999632329, 0.9701985999708995, 0.9845534999622032, 0.9994616999756545, 1.0170042000245303, 1.0346836999524385, 1.0510283999610692, 1.0685087000019848, 1.0845793000189587, 1.0999140000203624, 1.1185626999940723, 1.134711500024423, 1.1516133999684826, 1.1668139999965206, 1.185735199949704, 1.200389700010419, 1.2168454000493512, 1.234952099970542, 1.2511267999652773, 1.2667457000352442, 1.286799900000915, 1.3014185000211, 1.3176969999913126, 1.3336410999763757, 1.3507993000093848, 1.36731050000526, 1.384384199976921, 1.4019101000158116, 1.4174582000123337, 1.4332504000049084, 1.4502787999808788]
pilot_s;5;7;0;1;False;3000;True;;8;-122.07354215482971;drag;L;-4.563819;-6.037847;0;-127.08;7.57;1.1141815999289975;1.1142461000708863;1683804097.004009;1683804097.012954;1683804097.765472;1683804098.2669528;1683804101.2672892;1683804102.3816123;[0.0, 0.0, 0.0, 0.0, 0.0, 0.0, 0.0, 0.0, 0.0, 0.0, 0.0, 0.0, 0.0, 0.0, 0.0, 0.0, 0.0, 0.0, 0.0, 0.0, 0.0, 0.0, 0.0, 0.0, -0.1133868, -0.48189393, -0.96378785, -1.5307219, -2.182696, -2.466163, -2.7212832, -2.9197102, -3.0330973, -3.1748307, -3.2598708, -3.316564, -3.3732576, -3.3732576, -3.4299507, -3.4299507, -3.4582977, -3.4582977, -3.4866443, -3.5433376, -3.6000311, -3.6850712, -3.798458, -3.8834982, -3.968538, -4.081925, -4.1953115, -4.2803516, -4.337045, -4.365392, -4.3937387, -4.422086, -4.422086, -4.4504323, -4.4504323, -4.478779, -4.478779, -4.5071254, -4.5354724, -4.5354724, -4.563819, -4.563819, -4.563819];[0.0, 0.0, 0.0, 0.0, 0.0, 0.0, 0.0, 0.0, 0.0, 0.0, 0.0, 0.0, 0.0, 0.0, 0.0, 0.0, 0.0, 0.0, 0.0, 0.0, 0.0, 0.0, 0.0, 0.0, -0.1700802, -0.6236274, -1.1622148, -1.7858423, -2.57955, -2.9764037, -3.3449106, -3.713418, -3.968538, -4.252005, -4.422086, -4.5354724, -4.648859, -4.6772056, -4.733899, -4.733899, -4.7905927, -4.818939, -4.847286, -4.9039793, -4.960673, -5.0740595, -5.300833, -5.41422, -5.527607, -5.612647, -5.697687, -5.75438, -5.811074, -5.8394203, -5.8394203, -5.8677673, -5.8677673, -5.896114, -5.924461, -5.924461, -5.9528074, -5.981154, -6.0095005, -6.037847, -6.037847, -6.037847, -6.037847];[0.0040565000381320715, 0.016788800014182925, 0.032967800041660666, 0.0499343000119552, 0.06722720002289861, 0.08352129999548197, 0.10080060001928359, 0.11637910001445562, 0.13418380008079112, 0.15000700007658452, 0.16617890004999936, 0.18394440005067736, 0.1985149000538513, 0.2150512000080198, 0.23267940001096576, 0.25026030000299215, 0.2667344000656158, 0.282706500031054, 0.29963150003459305, 0.3150592000456527, 0.3337067000102252, 0.34900779998861253, 0.3659569000592455, 0.38230709999334067, 0.39915459998883307, 0.41627240006346256, 0.4330121000530198, 0.4484810000285506, 0.46693790005519986, 0.48315750004258007, 0.4995172000490129, 0.5174052000511438, 0.5320620000129566, 0.5491581000387669, 0.5662569000851363, 0.5826020000968128, 0.6007104000309482, 0.6161315999925137, 0.6335802000248805, 0.6490542000392452, 0.6655788000207394, 0.6817471000831574, 0.7002294000703841, 0.7176338999997824, 0.7336710999952629, 0.7491537000751123, 0.7657666000304744, 0.7821543000172824, 0.799511400051415, 0.8161816000938416, 0.8334480000194162, 0.8500550000462681, 0.8661787000019103, 0.882737800013274, 0.8991790000582114, 0.915786600089632, 0.9327370000537485, 0.9491790999891236, 0.9666671000886708, 0.9825324000557885, 1.0001092000165954, 1.0161685000639409, 1.033922400092706, 1.0493201999925077, 1.0689734000479802, 1.0817764000967145, 1.0990950000705197]
