subj;trial;block;prior;kappa;ct;delay;fix;keypressed;R;T_Angle;resp_mod;choice_x;choice_y;init_resp_angle;choiceAngle;choiceR;RT;MT;ts_b;ts_f;ts_p;ts_d;ts_r;ts_e;m_pos_x;m_pos_y;m_clock

pilot_20;0;0;0;1;False;3000;True;;8;158.37067701202685;drag;L;-5.66934;3.2031772;0;150.53;6.51;1.5335844999644905;1.5336691000266;1683805165.409685;1683805165.4216864;1683805166.1782103;1683805166.8630078;1683805169.8612666;1683805171.3949873;[0.0, 0.0, 0.0, 0.0, 0.0, 0.0, 0.0, 0.0, 0.0, 0.0, 0.0, 0.0, 0.0, 0.0, 0.0, 0.0, 0.0, 0.0, 0.0, 0.0, 0.0, 0.0, 0.0, 0.0, 0.0, 0.0, 0.0, 0.0, 0.0, -0.1133868, -1.0488279, -2.2393894, -2.6362433, -2.9764037, -3.146484, -3.316564, -3.4866443, -3.6283777, -3.770111, -4.025232, -4.166965, -4.365392, -4.648859, -4.7905927, -4.932326, -5.0740595, -5.130753, -5.1591, -5.1874466, -5.215793, -5.2724867, -5.2724867, -5.32918, -5.32918, -5.3858733, -5.41422, -5.4425664, -5.4709134, -5.4709134, -5.4992604, -5.4992604, -5.4992604, -5.4992604, -5.4992604, -5.4992604, -5.527607, -5.527607, -5.5559535, -5.5559535, -5.5559535, -5.5559535, -5.5843005, -5.612647, -5.612647, -5.6409936, -5.6409936, -5.6409936, -5.66934, -5.66934, -5.66934, -5.66934, -5.66934, -5.66934, -5.66934, -5.66934, -5.66934, -5.66934, -5.66934, -5.66934, -5.66934, -5.66934, -5.66934];[0.0, 0.0, 0.0, 0.0, 0.0, 0.0, 0.0, 0.0, 0.0, 0.0, 0.0, 0.0, 0.0, 0.0, 0.0, 0.0, 0.0, 0.0, 0.0, 0.0, 0.0, 0.0, 0.0, 0.0, 0.0, 0.0, 0.0, 0.0, 0.0, 0.0566934, 0.53858733, 1.1622148, 1.3606416, 1.5307219, 1.6441087, 1.7858423, 1.9275757, 2.012616, 2.0976558, 2.211043, 2.2677362, 2.381123, 2.5228565, 2.6078966, 2.66459, 2.7212832, 2.7496302, 2.7496302, 2.7779768, 2.7779768, 2.8063235, 2.83467, 2.83467, 2.8630168, 2.8630168, 2.8913634, 2.8913634, 2.9197102, 2.948057, 2.948057, 2.9764037, 2.9764037, 3.0047503, 3.0047503, 3.0047503, 3.0330973, 3.0614438, 3.0614438, 3.0897903, 3.0897903, 3.1181371, 3.1181371, 3.146484, 3.1748307, 3.1748307, 3.2031772, 3.2031772, 3.2031772, 3.2031772, 3.2031772, 3.2031772, 3.2031772, 3.2031772, 3.2031772, 3.2031772, 3.2031772, 3.2031772, 3.2031772, 3.2031772, 3.2031772, 3.2031772, 3.2031772];[0.005454099969938397, 0.016447599977254868, 0.03555439994670451, 0.050140999956056476, 0.06788879993837327, 0.08410320000257343, 0.10129869997035712, 0.11679529992397875, 0.13382069999352098, 0.1504035999532789, 0.16777499997988343, 0.18356739997398108, 0.20052169996779412, 0.21678609994705766, 0.2342717000283301, 0.2506302000256255, 0.2677902999566868, 0.28324279992375523, 0.3007019000360742, 0.31729069992434233, 0.3340165999252349, 0.35005100001581013, 0.3679005999583751, 0.3838829000014812, 0.4012481999816373, 0.41698099998757243, 0.4331628999207169, 0.45062259992118925, 0.4680738999741152, 0.4821489999303594, 0.5003781999694183, 0.5163354999385774, 0.5340781999984756, 0.5531137000070885, 0.567121300031431, 0.5840708999894559, 0.6025169999338686, 0.615570200025104, 0.634628799976781, 0.6499570999294519, 0.6671341999899596, 0.6841950999805704, 0.6998317999532446, 0.7166414000093937, 0.733120399992913, 0.7497587000252679, 0.7710166999604553, 0.783647199976258, 0.8014465000014752, 0.8166731999954209, 0.8334817999275401, 0.8500792999984697, 0.8671813999535516, 0.8833395999390632, 0.9034899999387562, 0.9155805000336841, 0.933740200009197, 0.9511760999448597, 0.9676468999823555, 0.9853982999920845, 1.000307000009343, 1.0162614999571815, 1.0364053000230342, 1.0493319999659434, 1.0677106999792159, 1.0856875999597833, 1.1000660000136122, 1.1177659999812022, 1.134926800034009, 1.1508076000027359, 1.1702528999885544, 1.1823714999482036, 1.201941299950704, 1.2180003999965265, 1.232591199921444, 1.2523157999385148, 1.2662896999390796, 1.282659100019373, 1.3000036999583244, 1.3163422000361606, 1.33438280003611, 1.34956559992861, 1.3679209999972954, 1.3833888999652117, 1.4019849000032991, 1.4171411999268457, 1.4352923999540508, 1.4511243000160903, 1.4674176999833435, 1.4827572000212967, 1.500148499966599, 1.516519199940376]

pilot_20;1;0;0;1;False;1000;True;;8;58.54699519235804;drag;L;3.514991;6.434701;0;61.35;7.33;2.05113140004687;2.0512139999773353;1683805172.3441021;1683805172.356232;1683805173.1118073;1683805173.6128955;1683805174.5948918;1683805176.6463263;[0.0, 0.0, 0.0, 0.0, 0.0, 0.0, 0.0, 0.0, 0.0, 0.0, 0.0, 0.0, 0.0, 0.0, 0.0, 0.0, 0.0, 0.0, 0.0, 0.0, 0.0, 0.0, 0.0, 0.0, 0.0, 0.0, 0.0, 0.0, 0.0, 0.0, 0.0, 0.0, 0.0, 0.0, 0.0, 0.0, 0.0, 0.0, 0.0, 0.0, 0.0, 0.0, 0.0, 0.0, 0.0, 0.0, 0.0, 0.0, 0.0, 0.0, 0.0, 0.0, 0.0, 0.0, 0.0, 0.0, 0.0, 0.0, 0.0, 0.0, 0.0, 0.0, 0.0, 0.0, 0.0, 0.0850401, 0.65197414, 1.7574955, 2.0409625, 2.2393894, 2.3527763, 2.466163, 2.66459, 2.7779768, 2.8913634, 3.0897903, 3.1748307, 3.2598708, 3.3732576, 3.5433376, 3.6850712, 3.8551514, 3.911845, 3.968538, 4.025232, 4.025232, 4.081925, 4.081925, 4.081925, 4.081925, 4.081925, 4.081925, 4.081925, 4.081925, 4.0535784, 4.025232, 3.996885, 3.996885, 3.9401915, 3.911845, 3.8834982, 3.8551514, 3.8268046, 3.798458, 3.770111, 3.7417645, 3.713418, 3.6850712, 3.6850712, 3.6567245, 3.6567245, 3.6283777, 3.6000311, 3.5716846, 3.5433376, 3.5433376, 3.5433376, 3.514991, 3.514991, 3.514991, 3.514991, 3.514991, 3.514991];[0.0, 0.0, 0.0, 0.0, 0.0, 0.0, 0.0, 0.0, 0.0, 0.0, 0.0, 0.0, 0.0, 0.0, 0.0, 0.0, 0.0, 0.0, 0.0, 0.0, 0.0, 0.0, 0.0, 0.0, 0.0, 0.0, 0.0, 0.0, 0.0, 0.0, 0.0, 0.0, 0.0, 0.0, 0.0, 0.0, 0.0, 0.0, 0.0, 0.0, 0.0, 0.0, 0.0, 0.0, 0.0, 0.0, 0.0, 0.0, 0.0, 0.0, 0.0, 0.0, 0.0, 0.0, 0.0, 0.0, 0.0, 0.0, 0.0, 0.0, 0.0, 0.0, 0.0, 0.0, 0.0, 0.3401604, 1.7008021, 3.996885, 4.478779, 4.847286, 5.045713, 5.2441397, 5.527607, 5.697687, 5.8677673, 6.1228876, 6.2362742, 6.378008, 6.491395, 6.6614747, 6.831555, 6.9732885, 7.029982, 7.0583286, 7.1150217, 7.1150217, 7.1150217, 7.1150217, 7.1150217, 7.1150217, 7.086675, 7.0583286, 7.0016356, 6.9732885, 6.944942, 6.888248, 6.8599014, 6.831555, 6.774862, 6.7465153, 6.7181687, 6.6898212, 6.6614747, 6.633128, 6.633128, 6.6047816, 6.548088, 6.548088, 6.5197415, 6.5197415, 6.491395, 6.491395, 6.4630475, 6.434701, 6.434701, 6.434701, 6.434701, 6.434701, 6.434701, 6.434701, 6.434701, 6.434701, 6.434701];[0.004973299917764962, 0.0188131999457255, 0.03433339996263385, 0.052224299986846745, 0.06765599991194904, 0.08426359994336963, 0.10168879991397262, 0.11813509999774396, 0.13216579996515065, 0.15055309992749244, 0.1668290999950841, 0.18401229998562485, 0.20019290002528578, 0.2177809999557212, 0.2350571999559179, 0.25134169997181743, 0.2669830999802798, 0.28442349995020777, 0.30242859991267323, 0.318538699997589, 0.33498889999464154, 0.3502666999120265, 0.36844529991503805, 0.38590059999842197, 0.40175139997154474, 0.4194704999681562, 0.4336327000055462, 0.45141939993482083, 0.4673815999412909, 0.48492209997493774, 0.5001919999485835, 0.5175288999453187, 0.5339171999366954, 0.5511588000226766, 0.5680214000167325, 0.5853325999341905, 0.6003970999736339, 0.6185380999231711, 0.6336488999659196, 0.6523743999423459, 0.6687471999321133, 0.6850454999366775, 0.7009739999193698, 0.7191293999785557, 0.7344909999519587, 0.7516224000137299, 0.7668663000222296, 0.7828448999207467, 0.8015123999211937, 0.8176910999463871, 0.8346633999608457, 0.8507126999320462, 0.867175200022757, 0.8845311999320984, 0.8997070000041276, 0.9167536000022665, 0.9334148999769241, 0.9504220000235364, 0.9654346000170335, 0.9840417000232264, 0.9990249000256881, 1.0165983999613672, 1.033621900016442, 1.0500849999953061, 1.0671296999789774, 1.0852986000245437, 1.1015015000011772, 1.1173507999628782, 1.1321802999591455, 1.151265799999237, 1.1665414000162855, 1.1833576000062749, 1.199157499941066, 1.2186468999134377, 1.2339051999151707, 1.2512902999296784, 1.2664892999455333, 1.2867106000194326, 1.3006341999862343, 1.3167490999912843, 1.33229399996344, 1.3505128999240696, 1.3663193000247702, 1.3829534000251442, 1.3997874999186024, 1.4177705999463797, 1.4325083999428898, 1.4497657999163494, 1.4660918000154197, 1.4841592999873683, 1.5002844999544322, 1.5163863999769092, 1.5329545999411494, 1.5502655999734998, 1.5660523999249563, 1.584878799971193, 1.601484699989669, 1.6166640999726951, 1.6336736999219283, 1.650350600015372, 1.6682766999583691, 1.682641900028102, 1.7010303999995813, 1.717856299947016, 1.7341331000206992, 1.7503624999662861, 1.7663312000222504, 1.7855171000119299, 1.7990697999484837, 1.816015199990943, 1.8345695999450982, 1.8512452999129891, 1.8674885999644175, 1.8840437999460846, 1.9013336999341846, 1.916526300017722, 1.9324040999636054, 1.9493445999687538, 1.9656433999771252, 1.9829433999257162, 2.0010412000119686, 2.0177872999338433, 2.0332519999938086]

pilot_20;2;0;0;1;False;1000;True;;8;-97.67757715758344;drag;L;-1.3039483;-7.0583286;0;-100.47;7.18;1.6507349000312388;1.6508091000141576;1683805177.4556625;1683805177.4737425;1683805178.2277558;1683805178.7289827;1683805179.7098296;1683805181.3604841;[0.0, 0.0, 0.0, 0.0, 0.0, 0.0, 0.0, 0.0, 0.0, 0.0, 0.0, 0.0, 0.0, 0.0, 0.0, 0.0, 0.0, 0.0, 0.0, 0.0, 0.0, 0.0, 0.0, 0.0, 0.0, 0.0, 0.0, 0.0, 0.0, 0.0, 0.0, 0.0, 0.0, 0.0, 0.0, 0.0, 0.0, 0.0, 0.0, 0.0, 0.0, 0.0, 0.0, 0.0, 0.0, 0.0, 0.0, 0.0, 0.0, 0.0, 0.0, 0.0, 0.0, 0.0, 0.0, 0.0, -0.53858733, -0.7086675, -0.87874776, -1.0204812, -1.0488279, -1.1055214, -1.1055214, -1.1055214, -1.1055214, -1.1055214, -1.1055214, -1.1055214, -1.1338681, -1.1338681, -1.1338681, -1.1338681, -1.1338681, -1.1338681, -1.1338681, -1.1338681, -1.1622148, -1.1622148, -1.1622148, -1.1905615, -1.1905615, -1.2189082, -1.2189082, -1.2189082, -1.2189082, -1.2472548, -1.2472548, -1.2472548, -1.2472548, -1.2756016, -1.3039483, -1.3039483, -1.3039483, -1.3039483, -1.3039483, -1.3039483, -1.3039483, -1.3039483, -1.3039483];[0.0, 0.0, 0.0, 0.0, 0.0, 0.0, 0.0, 0.0, 0.0, 0.0, 0.0, 0.0, 0.0, 0.0, 0.0, 0.0, 0.0, 0.0, 0.0, 0.0, 0.0, 0.0, 0.0, 0.0, 0.0, 0.0, 0.0, 0.0, 0.0, 0.0, 0.0, 0.0, 0.0, 0.0, 0.0, 0.0, 0.0, 0.0, 0.0, 0.0, 0.0, 0.0, 0.0, 0.0, 0.0, 0.0, 0.0, 0.0, 0.0, 0.0, 0.0, 0.0, 0.0, 0.0, 0.0, 0.0, -2.5512033, -3.4582977, -4.2236586, -5.0740595, -5.32918, -5.41422, -5.4992604, -5.5559535, -5.5843005, -5.66934, -5.697687, -5.7260337, -5.811074, -5.8677673, -5.924461, -6.0095005, -6.094541, -6.151234, -6.1795807, -6.2079277, -6.264621, -6.292968, -6.378008, -6.4630475, -6.5197415, -6.5764346, -6.6614747, -6.7465153, -6.774862, -6.831555, -6.831555, -6.888248, -6.888248, -6.944942, -6.9732885, -6.9732885, -7.0016356, -7.0016356, -7.029982, -7.0583286, -7.0583286, -7.0583286, -7.0583286];[0.004562999936752021, 0.020344799966551363, 0.03559220000170171, 0.05302929994650185, 0.06938509992323816, 0.08533199992962182, 0.10278119996655732, 0.11897249997127801, 0.13649599999189377, 0.1523661999963224, 0.169181999983266, 0.1864789999090135, 0.2012491999194026, 0.2193982999306172, 0.23595339991152287, 0.25266789994202554, 0.2701562999282032, 0.28558029991108924, 0.302001699921675, 0.319231899920851, 0.33419209998100996, 0.35223399999085814, 0.3708669999614358, 0.38565579999703914, 0.4019283999223262, 0.41940879996400326, 0.43656359997112304, 0.45391769998241216, 0.4693246999522671, 0.48621859995182604, 0.5022305999882519, 0.5201331999851391, 0.5352226999821141, 0.5534613999770954, 0.5695061999140307, 0.5864067999646068, 0.6013934999937192, 0.6203250999096781, 0.6355770999798551, 0.6530633999500424, 0.6682452999521047, 0.686620399937965, 0.7027277000015602, 0.719902899931185, 0.7356384999584407, 0.753113399958238, 0.7693725000135601, 0.7861189999384806, 0.8018900000024587, 0.8194600999122486, 0.8357910999329761, 0.8537151999771595, 0.8682803999399766, 0.8867315999232233, 0.9031845999415964, 0.9196805999381468, 0.938848799909465, 0.9523774000117555, 0.9673263999866322, 0.9891416999744251, 1.0020644000032917, 1.0197693000081927, 1.0346132999984547, 1.0534139999654144, 1.0684178000083193, 1.0868527999846265, 1.101869500009343, 1.120386999915354, 1.1358306999318302, 1.1530041999649256, 1.1686215999070555, 1.1862189999083057, 1.2024071000050753, 1.2192724000196904, 1.2361609999788925, 1.2533514999086037, 1.270049799932167, 1.285737399943173, 1.300679299980402, 1.3175876999739558, 1.335653799935244, 1.3519416999770328, 1.368074300000444, 1.3882449999218807, 1.3999704999150708, 1.4196463999105617, 1.4343196999980137, 1.451260400004685, 1.468079200014472, 1.4863283999729902, 1.5002238999586552, 1.5184531999984756, 1.5348671999527141, 1.551561199943535, 1.568650999921374, 1.5845343999098986, 1.600723800016567, 1.618311999947764, 1.6338936999673024]

pilot_20;3;0;0;1;False;3000;True;;8;-134.48162167813905;drag;L;-4.847286;-6.1228876;0;-128.37;7.81;1.434873400023207;1.4349523999262601;1683805182.1703;1683805182.1886153;1683805182.943476;1683805183.4452062;1683805186.4441922;1683805187.8788207;[0.0, 0.0, 0.0, 0.0, 0.0, 0.0, 0.0, 0.0, 0.0, 0.0, 0.0, 0.0, 0.0, 0.0, 0.0, 0.0, 0.0, 0.0, 0.0, 0.0, 0.0, 0.0, 0.0, 0.0, 0.0, 0.0, 0.0, 0.0, -0.56693405, -1.0488279, -1.4456817, -1.8141888, -2.0976558, -2.2960827, -2.4945097, -2.57955, -2.6362433, -2.7779768, -2.8913634, -3.0047503, -3.2031772, -3.3732576, -3.4582977, -3.514991, -3.6000311, -3.6283777, -3.713418, -3.770111, -3.8834982, -3.996885, -4.110272, -4.252005, -4.337045, -4.422086, -4.5354724, -4.5921655, -4.648859, -4.7055526, -4.733899, -4.7905927, -4.7905927, -4.7905927, -4.818939, -4.818939, -4.818939, -4.818939, -4.818939, -4.847286, -4.847286, -4.847286, -4.847286, -4.847286, -4.847286, -4.847286, -4.847286, -4.847286, -4.847286, -4.847286, -4.847286, -4.847286, -4.847286, -4.847286, -4.847286, -4.847286, -4.847286, -4.847286];[0.0, 0.0, 0.0, 0.0, 0.0, 0.0, 0.0, 0.0, 0.0, 0.0, 0.0, 0.0, 0.0, 0.0, 0.0, 0.0, 0.0, 0.0, 0.0, 0.0, 0.0, 0.0, 0.0, 0.0, 0.0, 0.0, 0.0, 0.0, -0.59528077, -0.9921345, -1.332295, -1.6157619, -1.899229, -2.0409625, -2.182696, -2.2677362, -2.3244295, -2.4945097, -2.6929367, -2.8630168, -3.146484, -3.4299507, -3.5716846, -3.6850712, -3.8551514, -3.9401915, -4.110272, -4.1953115, -4.4504323, -4.648859, -4.7905927, -5.017366, -5.130753, -5.215793, -5.3858733, -5.527607, -5.612647, -5.697687, -5.782727, -5.811074, -5.8394203, -5.8677673, -5.896114, -5.924461, -5.924461, -5.9528074, -5.981154, -6.0095005, -6.037847, -6.0661945, -6.094541, -6.1228876, -6.1228876, -6.1228876, -6.1228876, -6.1228876, -6.1228876, -6.1228876, -6.1228876, -6.1228876, -6.1228876, -6.1228876, -6.1228876, -6.1228876, -6.1228876, -6.1228876];[0.003772699972614646, 0.018452599993906915, 0.03455969993956387, 0.04971669998485595, 0.068133799941279, 0.08371769997756928, 0.10047289996873587, 0.11595469992607832, 0.13479529996402562, 0.1496109999716282, 0.16786159994080663, 0.18387900001835078, 0.20059070002753288, 0.21555459999945015, 0.2359731999458745, 0.25095160002820194, 0.2686251000268385, 0.28531459998339415, 0.3012477000011131, 0.3172021999489516, 0.33409100002609193, 0.35123169992584735, 0.3679250000277534, 0.3842366000171751, 0.40202379995025694, 0.4168929000152275, 0.43442800000775605, 0.4499121999833733, 0.4698223000159487, 0.48410599993076175, 0.5013453999999911, 0.518584799952805, 0.5354793999576941, 0.5527920000022277, 0.5717759999679402, 0.5847686999477446, 0.6022630999796093, 0.6183228000300005, 0.6347478999523446, 0.6496802000328898, 0.668858699966222, 0.6862238999456167, 0.7024713000282645, 0.7177442000247538, 0.7370902999537066, 0.7495929999276996, 0.77104949997738, 0.7835812999401242, 0.8000320999417454, 0.8172319999430329, 0.8361149999545887, 0.8517045000335202, 0.8666433999314904, 0.8833988999249414, 0.903621600009501, 0.9189038999611512, 0.9345400999300182, 0.9508285999763757, 0.9698224000167102, 0.9858177999267355, 1.0012796999653801, 1.0168575999559835, 1.034934900002554, 1.0501054000342265, 1.0675683999434114, 1.0852452999679372, 1.101316099986434, 1.1183496000012383, 1.1338232000125572, 1.1501243999227881, 1.167115299962461, 1.1849297999870032, 1.200829999987036, 1.2173036999301985, 1.2343936000252143, 1.2496785999974236, 1.2681779999984428, 1.2831696999492124, 1.301348099950701, 1.3165373000083491, 1.3356599999824539, 1.3507497999817133, 1.36751260003075, 1.382002400001511, 1.4005595999769866, 1.4156727999215946]

pilot_20;4;0;0;1;False;1000;True;;8;136.74329170359758;drag;L;-5.66934;4.2803516;0;142.95;7.1;1.2810899999458343;1.2812142999609932;1683805188.7534018;1683805188.7728028;1683805189.5273201;1683805190.0292146;1683805191.0114386;1683805192.2921941;[0.0, 0.0, 0.0, 0.0, 0.0, 0.0, 0.0, 0.0, 0.0, 0.0, 0.0, 0.0, 0.0, 0.0, 0.0, 0.0, 0.0, 0.0, 0.0, 0.0, 0.0, 0.0, 0.0, 0.0, 0.0, 0.0, 0.0, 0.0, 0.0, 0.0, 0.0, 0.0, 0.0, 0.0, 0.0, 0.0, -2.1260026, -3.8551514, -4.847286, -5.3575263, -5.3858733, -5.41422, -5.4425664, -5.4425664, -5.4425664, -5.4425664, -5.4425664, -5.4425664, -5.4425664, -5.4425664, -5.4425664, -5.4425664, -5.4709134, -5.4709134, -5.4992604, -5.4992604, -5.527607, -5.5843005, -5.612647, -5.6409936, -5.66934, -5.66934, -5.66934, -5.66934, -5.66934, -5.66934, -5.66934, -5.66934, -5.66934, -5.66934, -5.66934, -5.66934, -5.66934, -5.66934, -5.66934, -5.66934, -5.66934];[0.0, 0.0, 0.0, 0.0, 0.0, 0.0, 0.0, 0.0, 0.0, 0.0, 0.0, 0.0, 0.0, 0.0, 0.0, 0.0, 0.0, 0.0, 0.0, 0.0, 0.0, 0.0, 0.0, 0.0, 0.0, 0.0, 0.0, 0.0, 0.0, 0.0, 0.0, 0.0, 0.0, 0.0, 0.0, 0.0, 1.4740285, 2.7212832, 3.3732576, 3.6000311, 3.6000311, 3.6283777, 3.6283777, 3.6567245, 3.6567245, 3.6567245, 3.6567245, 3.6567245, 3.6567245, 3.6850712, 3.6850712, 3.6850712, 3.713418, 3.713418, 3.7417645, 3.770111, 3.8551514, 3.968538, 4.0535784, 4.110272, 4.166965, 4.2236586, 4.2236586, 4.2803516, 4.2803516, 4.2803516, 4.2803516, 4.2803516, 4.2803516, 4.2803516, 4.2803516, 4.2803516, 4.2803516, 4.2803516, 4.2803516, 4.2803516, 4.2803516];[0.00388599990401417, 0.018034399952739477, 0.03283119993284345, 0.050379399908706546, 0.06553469994105399, 0.08449399995151907, 0.10045819997321814, 0.11771599994972348, 0.13326169992797077, 0.15171639993786812, 0.16590869997162372, 0.18331899994518608, 0.19961599993985146, 0.21693829994183034, 0.23232039995491505, 0.2505219999002293, 0.2660559999058023, 0.2842976999236271, 0.30006389995105565, 0.3170342999510467, 0.3330737999640405, 0.3514885999029502, 0.3673736999044195, 0.3846385999349877, 0.3996036999160424, 0.4178065999876708, 0.4333407999947667, 0.4506671999115497, 0.4664633999345824, 0.48394009994808584, 0.4987736999755725, 0.5184591999277472, 0.5326249999925494, 0.5502133999252692, 0.5668096999870613, 0.5838363999500871, 0.6002856999402866, 0.6162457999307662, 0.6344633999979123, 0.6522760998923331, 0.6654644999653101, 0.6837738999165595, 0.6997637999011204, 0.7173535999609157, 0.7334374999627471, 0.7499800999648869, 0.7665021999273449, 0.7826001999201253, 0.8007713999832049, 0.8176139999413863, 0.8320569999050349, 0.851115999976173, 0.8658213999588042, 0.8827745999442413, 0.8993984999833629, 0.9162228999193758, 0.9345539999194443, 0.9503429998876527, 0.9654064999194816, 0.9857351999962702, 1.0004918999038637, 1.017482899944298, 1.0314808998955414, 1.050403399975039, 1.064561799983494, 1.0834026999073103, 1.099123299936764, 1.1179733999306336, 1.131967299967073, 1.1504240999929607, 1.1657571999821812, 1.184620999963954, 1.1995578999631107, 1.2162231999682263, 1.2330245999619365, 1.2502795999171212, 1.2664579999400303]

pilot_20;5;0;0;1;False;3000;True;;8;15.598637402254395;drag;L;7.6536093;3.2031772;0;22.71;8.3;1.4644066999899223;1.4645321000134572;1683805193.0641034;1683805193.0717227;1683805193.8278575;1683805194.32814;1683805197.327282;1683805198.792096;[0.0, 0.0, 0.0, 0.0, 0.0, 0.0, 0.0, 0.0, 0.0, 0.0, 0.0, 0.0, 0.0, 0.0, 0.0, 0.0, 0.0, 0.0, 0.0, 0.0, 0.0, 0.0, 0.0, 0.0, 0.0, 0.0, 0.0, 1.2189082, 2.3244295, 3.146484, 3.8268046, 3.996885, 4.110272, 4.166965, 4.2236586, 4.2803516, 4.337045, 4.4504323, 4.563819, 4.620512, 4.818939, 4.932326, 5.0740595, 5.130753, 5.2441397, 5.300833, 5.4992604, 5.782727, 6.8599014, 8.135503, 9.155985, 9.467798, 9.552838, 9.694572, 9.779612, 9.836306, 9.836306, 9.864652, 9.892999, 9.921346, 9.921346, 9.921346, 9.892999, 9.892999, 9.864652, 9.751266, 9.581185, 9.297718, 8.929211, 8.815824, 8.702437, 8.617397, 8.560703, 8.418971, 8.192197, 7.99377, 7.82369, 7.7669964, 7.710303, 7.710303, 7.681956, 7.6536093, 7.6536093, 7.6536093, 7.6536093, 7.6536093, 7.6536093, 7.6536093];[0.0, 0.0, 0.0, 0.0, 0.0, 0.0, 0.0, 0.0, 0.0, 0.0, 0.0, 0.0, 0.0, 0.0, 0.0, 0.0, 0.0, 0.0, 0.0, 0.0, 0.0, 0.0, 0.0, 0.0, 0.0, 0.0, 0.0, 0.56693405, 0.96378785, 1.2472548, 1.4456817, 1.5307219, 1.5590686, 1.5874153, 1.6157619, 1.6157619, 1.6441087, 1.6441087, 1.6441087, 1.6441087, 1.7008021, 1.7291489, 1.7574955, 1.8141888, 1.8141888, 1.8425356, 1.899229, 1.984269, 2.211043, 2.2393894, 2.2393894, 2.2393894, 2.2677362, 2.3527763, 2.4094696, 2.4945097, 2.4945097, 2.5512033, 2.57955, 2.6078966, 2.66459, 2.7496302, 2.8063235, 2.83467, 2.8913634, 2.8913634, 2.8913634, 2.9197102, 2.9764037, 3.0047503, 3.0047503, 3.0330973, 3.0614438, 3.0614438, 3.1181371, 3.1748307, 3.1748307, 3.2031772, 3.2031772, 3.2031772, 3.2031772, 3.2031772, 3.2031772, 3.2031772, 3.2031772, 3.2031772, 3.2031772, 3.2031772];[0.003778000012971461, 0.016520999954082072, 0.03356740006711334, 0.04908460006117821, 0.06652240001130849, 0.08296390005853027, 0.10067329998128116, 0.1178692999528721, 0.13438060006592423, 0.15081610006745905, 0.16822810005396605, 0.18370319996029139, 0.19979990005958825, 0.21668840001802891, 0.2326735999668017, 0.24980460002552718, 0.2675598000641912, 0.283551900065504, 0.30082090001087636, 0.31697010004427284, 0.33488460001535714, 0.3496045999927446, 0.3663010000018403, 0.38278580002952367, 0.3995468000648543, 0.41562940005678684, 0.43372630001977086, 0.45005830004811287, 0.4661515000043437, 0.48317530006170273, 0.5015311000170186, 0.5159019000129774, 0.5342222000472248, 0.5500840999884531, 0.5661470000632107, 0.5821159000042826, 0.5995510000502691, 0.6185675000306219, 0.6325108000310138, 0.6482640999602154, 0.6659520000685006, 0.6831786000402644, 0.7001917000161484, 0.716410499997437, 0.7326907999813557, 0.7492981000104919, 0.7670690000522882, 0.7834975000005215, 0.8016056000487879, 0.8179430000018328, 0.8338199000572786, 0.8491075000492856, 0.866371399955824, 0.8852575999917462, 0.9017545999959111, 0.9214748999802396, 0.9331455000210553, 0.9504114000592381, 0.9698127000592649, 0.9841859999578446, 0.9998007999965921, 1.0162314999615774, 1.035341199953109, 1.049638699973002, 1.0658916999818757, 1.0830633000005037, 1.099502700031735, 1.115400700015016, 1.1329859000397846, 1.1502145000267774, 1.1685239999787882, 1.1845613999757916, 1.1994633000576869, 1.2149773000273854, 1.2333108000457287, 1.2485554000595585, 1.2664387000259012, 1.2829059000359848, 1.2999228000408038, 1.3143117000581697, 1.3320320000639185, 1.3491090000607073, 1.3651686999946833, 1.3826826000586152, 1.400143300066702, 1.415354200056754, 1.434014099999331, 1.4489432000555098]

pilot_20;6;0;0;1;False;3000;True;;8;26.866693283770804;drag;L;7.313449;3.1748307;0;23.47;7.97;1.4358103999402374;1.4359227999811992;1683805199.5604527;1683805199.5724595;1683805200.3275795;1683805200.8277345;1683805203.8263931;1683805205.2631366;[0.0, 0.0, 0.0, 0.0, 0.0, 0.0, 0.0, 0.0, 0.0, 0.0, 0.0, 0.0, 0.0, 0.0, 0.0, 0.0, 0.0, 0.0, 0.0, 0.0, 0.0, 0.0, 0.0, 0.0, 0.0, 0.0, 0.0, 0.3118137, 0.96378785, 1.4740285, 1.9275757, 2.182696, 2.466163, 3.1181371, 3.4866443, 3.798458, 4.2236586, 4.4504323, 4.6772056, 4.7905927, 4.960673, 5.1024065, 5.1874466, 5.1874466, 5.1874466, 5.1874466, 5.1874466, 5.1874466, 5.1874466, 5.1874466, 5.1874466, 5.1874466, 5.1874466, 5.1874466, 5.41422, 5.527607, 5.6409936, 5.75438, 5.8394203, 5.896114, 5.981154, 6.0661945, 6.151234, 6.2079277, 6.321315, 6.434701, 6.5764346, 6.633128, 6.774862, 6.888248, 6.944942, 7.029982, 7.0583286, 7.086675, 7.1150217, 7.143369, 7.1717157, 7.2000623, 7.228409, 7.2567554, 7.2567554, 7.285102, 7.313449, 7.313449, 7.313449, 7.313449];[0.0, 0.0, 0.0, 0.0, 0.0, 0.0, 0.0, 0.0, 0.0, 0.0, 0.0, 0.0, 0.0, 0.0, 0.0, 0.0, 0.0, 0.0, 0.0, 0.0, 0.0, 0.0, 0.0, 0.0, 0.0, 0.0, 0.0, 0.0566934, 0.28346702, 0.4535472, 0.6236274, 0.7086675, 0.79370767, 1.0488279, 1.2189082, 1.3606416, 1.5307219, 1.6441087, 1.7574955, 1.8141888, 1.9559225, 2.012616, 2.0693092, 2.0693092, 2.0693092, 2.0693092, 2.0693092, 2.0693092, 2.0693092, 2.0693092, 2.0693092, 2.0693092, 2.0693092, 2.0693092, 2.1543493, 2.211043, 2.2393894, 2.2960827, 2.3244295, 2.3527763, 2.381123, 2.4094696, 2.4378164, 2.466163, 2.5512033, 2.6078966, 2.6929367, 2.7212832, 2.7779768, 2.83467, 2.8630168, 2.9197102, 2.948057, 2.948057, 2.9764037, 3.0047503, 3.0614438, 3.0897903, 3.1181371, 3.1181371, 3.146484, 3.1748307, 3.1748307, 3.1748307, 3.1748307, 3.1748307];[0.0049443000461906195, 0.019620000035502017, 0.03485880000516772, 0.04977259994484484, 0.06882100005168468, 0.08462550002150238, 0.10202700004447252, 0.1178526000585407, 0.134046999970451, 0.1494628000073135, 0.16746789996977895, 0.18378780002240092, 0.20099839998874813, 0.21556210005655885, 0.23182310000993311, 0.24892030004411936, 0.265835199970752, 0.281681300024502, 0.298860999988392, 0.3159559000050649, 0.3328944999957457, 0.34891269996296614, 0.36585149995516986, 0.38289430004078895, 0.3999638999812305, 0.4148410999914631, 0.431850100052543, 0.4488657000474632, 0.4666439000284299, 0.48238419997505844, 0.4993597000138834, 0.5156514999689534, 0.5344762000022456, 0.5492352000437677, 0.5663519999943674, 0.5822321999585256, 0.5992263000225648, 0.615336999995634, 0.6332177000585943, 0.6492582999635488, 0.6662449999712408, 0.6822037999518216, 0.6992320000426844, 0.7152358000166714, 0.7322673000162467, 0.7481547000352293, 0.765814800048247, 0.7825938999885693, 0.7992463000118732, 0.8155251999851316, 0.8342411000048742, 0.8500996000366285, 0.8670452999649569, 0.8838287000544369, 0.9002131000161171, 0.9166148999938741, 0.935658699949272, 0.9516304000280797, 0.9696876000380144, 0.9866826999932528, 1.0020565000595525, 1.0184712000191212, 1.0380935999564826, 1.050818799994886, 1.0660422999644652, 1.0839809000026435, 1.1036012000404298, 1.1173949999501929, 1.1341928000329062, 1.151690199971199, 1.16727690002881, 1.183549299952574, 1.1995886999648064, 1.2164088999852538, 1.2339920999947935, 1.2485480000032112, 1.2662921999581158, 1.2835161000257358, 1.3021274999482557, 1.3177652000449598, 1.33419209998101, 1.3510137000121176, 1.3690029999706894, 1.3828096999786794, 1.4014999000355601, 1.4176318000536412]

pilot_20;7;0;0;1;False;1000;True;;8;-92.40221620920988;drag;L;-0.65197414;-8.022117;0;-94.65;8.05;1.1989404000341892;1.1990297999000177;1683805206.034558;1683805206.0548034;1683805206.809449;1683805207.3108459;1683805208.2929766;1683805209.4913373;[0.0, 0.0, 0.0, 0.0, 0.0, 0.0, 0.0, 0.0, 0.0, 0.0, 0.0, 0.0, 0.0, 0.0, 0.0, 0.0, 0.0, 0.0, 0.0, 0.0, 0.0, 0.0, 0.0, 0.0, 0.0, 0.0, 0.0, 0.0, 0.0, 0.0, 0.0, -0.0566934, -0.0850401, -0.1133868, -0.1700802, -0.1700802, -0.19842692, -0.2551203, -0.28346702, -0.3118137, -0.36850712, -0.39685383, -0.39685383, -0.42520052, -0.4535472, -0.48189393, -0.48189393, -0.48189393, -0.5102406, -0.5102406, -0.53858733, -0.56693405, -0.59528077, -0.59528077, -0.6236274, -0.6236274, -0.6236274, -0.6236274, -0.65197414, -0.65197414, -0.65197414, -0.65197414, -0.65197414, -0.65197414, -0.65197414, -0.65197414, -0.65197414, -0.65197414, -0.65197414, -0.65197414, -0.65197414, -0.65197414];[0.0, 0.0, 0.0, 0.0, 0.0, 0.0, 0.0, 0.0, 0.0, 0.0, 0.0, 0.0, 0.0, 0.0, 0.0, 0.0, 0.0, 0.0, 0.0, 0.0, 0.0, 0.0, 0.0, 0.0, 0.0, 0.0, 0.0, 0.0, 0.0, 0.0, 0.0, -0.59528077, -1.7291489, -2.2960827, -2.4945097, -2.66459, -2.9764037, -3.146484, -3.3732576, -3.7417645, -4.337045, -4.6772056, -4.932326, -5.1874466, -5.41422, -5.4992604, -5.5843005, -5.7260337, -5.8677673, -6.1228876, -6.5197415, -7.0016356, -7.341796, -7.5685697, -7.7386494, -7.8520365, -7.9087296, -7.937076, -7.9654226, -7.9654226, -7.99377, -8.022117, -8.022117, -8.022117, -8.022117, -8.022117, -8.022117, -8.022117, -8.022117, -8.022117, -8.022117, -8.022117];[0.0042773999739438295, 0.018241000012494624, 0.03425129991956055, 0.05239510000683367, 0.06682539999019355, 0.0837898999452591, 0.10057839995715767, 0.1188415999058634, 0.13549909996800125, 0.1514254999347031, 0.16723999998066574, 0.1844077999703586, 0.20148960000369698, 0.21701319993007928, 0.2346085999161005, 0.2521508999634534, 0.26912939990870655, 0.2847402999177575, 0.300717799924314, 0.3187797999707982, 0.334563999902457, 0.35324450000189245, 0.3690197999821976, 0.3841729999985546, 0.3993674999801442, 0.41874039999675006, 0.4334399999352172, 0.45223920000717044, 0.4673008999088779, 0.48504870000761, 0.5002401999663562, 0.5174911000067368, 0.533867499907501, 0.5525719999568537, 0.5658924999879673, 0.58363449992612, 0.6034897000063211, 0.6181714999256656, 0.634066200000234, 0.6509419999783859, 0.6697526999050751, 0.6836591999744996, 0.7022415999090299, 0.7172829000046477, 0.7347331999335438, 0.7496302999788895, 0.7663092999719083, 0.7852500999579206, 0.8003341999137774, 0.8174471999518573, 0.8328602999681607, 0.8514567000092939, 0.8663479000097141, 0.8850274999858811, 0.9010455999523401, 0.9177881999639794, 0.9361552000045776, 0.9502747999504209, 0.9673646999290213, 0.9840194999706, 1.001880900003016, 1.0191328999353573, 1.0330791999585927, 1.0512764999875799, 1.0674785999581218, 1.0836360999383032, 1.0999710999894887, 1.1161331000039354, 1.132722600013949, 1.150083199958317, 1.166354399989359, 1.1839324999600649]

pilot_20;8;0;0;1;False;3000;True;;8;-3.6441348805548457;drag;L;8.022117;-1.7574955;0;-12.36;8.21;1.5143905999138951;1.5144626999972388;1683805210.2308767;1683805210.2380037;1683805210.9918513;1683805211.4924262;1683805214.4928215;1683805216.006513;[0.0, 0.0, 0.0, 0.0, 0.0, 0.0, 0.0, 0.0, 0.0, 0.0, 0.0, 0.0, 0.0, 0.0, 0.0, 0.0, 0.0, 0.0, 0.0, 0.0, 0.0, 0.0, 0.0, 0.0, 0.0, 0.0, 0.0, 0.0, 0.0, 0.0, 0.0, 0.5102406, 1.1338681, 1.3039483, 1.417335, 1.5023751, 1.6441087, 1.7291489, 1.8708823, 1.9559225, 2.1260026, 2.2677362, 2.4378164, 2.8913634, 3.3449106, 3.9401915, 4.3937387, 4.932326, 5.7260337, 6.0661945, 7.0016356, 7.540222, 7.937076, 8.33393, 8.67409, 8.957558, 9.326065, 9.439451, 9.524492, 9.581185, 9.581185, 9.581185, 9.581185, 9.524492, 9.524492, 9.467798, 9.354411, 9.212678, 9.042598, 8.872518, 8.702437, 8.617397, 8.560703, 8.50401, 8.447317, 8.447317, 8.390623, 8.305584, 8.220544, 8.16385, 8.135503, 8.07881, 8.07881, 8.050464, 8.050464, 8.022117, 8.022117, 8.022117, 8.022117, 8.022117, 8.022117];[0.0, 0.0, 0.0, 0.0, 0.0, 0.0, 0.0, 0.0, 0.0, 0.0, 0.0, 0.0, 0.0, 0.0, 0.0, 0.0, 0.0, 0.0, 0.0, 0.0, 0.0, 0.0, 0.0, 0.0, 0.0, 0.0, 0.0, 0.0, 0.0, 0.0, 0.0, -0.14173351, -0.42520052, -0.53858733, -0.59528077, -0.6236274, -0.6803208, -0.73701423, -0.79370767, -0.8220543, -0.87874776, -0.96378785, -0.9921345, -1.1055214, -1.1905615, -1.3039483, -1.417335, -1.4456817, -1.332295, -1.3039483, -1.2756016, -1.332295, -1.417335, -1.5307219, -1.6441087, -1.7574955, -1.9275757, -1.984269, -1.984269, -2.012616, -2.012616, -2.012616, -2.012616, -2.012616, -2.012616, -2.012616, -2.012616, -2.012616, -2.012616, -1.984269, -1.9275757, -1.9275757, -1.9275757, -1.899229, -1.899229, -1.8708823, -1.8425356, -1.8141888, -1.7858423, -1.7574955, -1.7574955, -1.7574955, -1.7574955, -1.7574955, -1.7574955, -1.7574955, -1.7574955, -1.7574955, -1.7574955, -1.7574955, -1.7574955];[0.004282899899408221, 0.01713019993621856, 0.03448019991628826, 0.05097029998432845, 0.06737939990125597, 0.08379919989965856, 0.1027569998987019, 0.11658319993875921, 0.13556819991208613, 0.15001809992827475, 0.16738050000276417, 0.18367229995783418, 0.20040390000212938, 0.21660759998485446, 0.23392309993505478, 0.25003019999712706, 0.2679136999649927, 0.2826649999478832, 0.30074669991154224, 0.31774119997862726, 0.33422299998346716, 0.3506446999963373, 0.3674899999750778, 0.3852708999766037, 0.400730499997735, 0.416784800007008, 0.43480809999164194, 0.4491517998976633, 0.4663210998987779, 0.48376709991134703, 0.5012768999440596, 0.5163352999370545, 0.5342492999043316, 0.5500494999578223, 0.5687066999962553, 0.5828143999679014, 0.5998069999041036, 0.6188365999842063, 0.636199599946849, 0.650793599896133, 0.6675314999883994, 0.6830953999888152, 0.6996188999619335, 0.7167637998936698, 0.7334213999565691, 0.7501526999985799, 0.7664944999851286, 0.783008600003086, 0.8031054999446496, 0.8164420999819413, 0.833593999966979, 0.8512112000025809, 0.8670691999141127, 0.8829104999313131, 0.900660999934189, 0.9159191999351606, 0.934704199898988, 0.9494589999085292, 0.9668726999079809, 0.9851331999525428, 1.0000958999153227, 1.0166680999100208, 1.0337295999052003, 1.0504246999043971, 1.0676793999737129, 1.0829693999839947, 1.1016032999614254, 1.116688699927181, 1.1333260999526829, 1.151247899979353, 1.166587199899368, 1.1837235999992117, 1.2006629999959841, 1.217197799938731, 1.2344224998960271, 1.250121199991554, 1.2688922999659553, 1.2824829999590293, 1.3014577999711037, 1.3164034999208525, 1.333766800002195, 1.3497803999343887, 1.3668983998941258, 1.3835439999820665, 1.4002210999606177, 1.4172589000081643, 1.4343476999783888, 1.4492946999380365, 1.4664041999494657, 1.484111599973403, 1.500649599940516]

pilot_20;9;0;0;1;False;1000;True;;8;-108.5332082065224;drag;L;-2.2393894;-7.3701425;0;-106.9;7.7;1.2002006000839174;1.20026610000059;1683805216.8602688;1683805216.871257;1683805217.6260827;1683805218.1263552;1683805219.10789;1683805220.3082204;[0.0, 0.0, 0.0, 0.0, 0.0, 0.0, 0.0, 0.0, 0.0, 0.0, 0.0, 0.0, 0.0, 0.0, 0.0, 0.0, 0.0, 0.0, 0.0, 0.0, 0.0, 0.0, 0.0, 0.0, 0.0, 0.0, 0.0, 0.0, 0.0, 0.0, 0.0, 0.0, 0.0, 0.0, 0.0, -0.6803208, -1.0771747, -1.5874153, -1.9559225, -2.182696, -2.3244295, -2.3527763, -2.381123, -2.381123, -2.4094696, -2.466163, -2.4945097, -2.5228565, -2.57955, -2.57955, -2.6078966, -2.6078966, -2.6362433, -2.66459, -2.66459, -2.66459, -2.66459, -2.66459, -2.6078966, -2.57955, -2.5228565, -2.466163, -2.4378164, -2.4094696, -2.3527763, -2.3244295, -2.2960827, -2.2960827, -2.2677362, -2.2393894, -2.2393894, -2.2393894];[0.0, 0.0, 0.0, 0.0, 0.0, 0.0, 0.0, 0.0, 0.0, 0.0, 0.0, 0.0, 0.0, 0.0, 0.0, 0.0, 0.0, 0.0, 0.0, 0.0, 0.0, 0.0, 0.0, 0.0, 0.0, 0.0, 0.0, 0.0, 0.0, 0.0, 0.0, 0.0, 0.0, 0.0, 0.0, -2.0976558, -3.4866443, -4.7055526, -5.612647, -6.292968, -6.548088, -6.6614747, -6.7181687, -6.7181687, -6.774862, -6.9732885, -7.1150217, -7.2567554, -7.3701425, -7.4551826, -7.483529, -7.5118756, -7.5118756, -7.5685697, -7.5685697, -7.5685697, -7.5685697, -7.540222, -7.5118756, -7.4551826, -7.4551826, -7.426836, -7.426836, -7.3984895, -7.3984895, -7.3984895, -7.3984895, -7.3984895, -7.3984895, -7.3984895, -7.3701425, -7.3701425];[0.004621500032953918, 0.020110500045120716, 0.03584190004039556, 0.05188829998951405, 0.06804899999406189, 0.08475509996060282, 0.10202120000030845, 0.11945640004705638, 0.13458329997956753, 0.15051840001251549, 0.16806850000284612, 0.18592800002079457, 0.20163899997714907, 0.2189306999789551, 0.23504039994440973, 0.2541053999448195, 0.2679192000068724, 0.2848193000536412, 0.30327609996311367, 0.31865389994345605, 0.3352148999692872, 0.3526756999781355, 0.3685597999719903, 0.38669860002119094, 0.401703399955295, 0.42015290004201233, 0.43623999995179474, 0.4530059000244364, 0.46903000003658235, 0.4861430999590084, 0.50137089996133, 0.5181789000052959, 0.5350242999847978, 0.5508282999508083, 0.5670409000013024, 0.5852409000508487, 0.6018025999655947, 0.619644399965182, 0.6348354000365362, 0.6515260000014678, 0.6676933999406174, 0.6848375999834388, 0.7025084999622777, 0.7186592000070959, 0.7339867999544367, 0.7537270999746397, 0.7684969999827445, 0.7857011000160128, 0.8014397999504581, 0.8173984000459313, 0.8344885000260547, 0.8514127000235021, 0.867406600038521, 0.8862430000444874, 0.9012246000347659, 0.9203012000070885, 0.9348001000471413, 0.9512549999635667, 0.9675820999545977, 0.9845177000388503, 1.0016033999854699, 1.0198350000428036, 1.0347693000221625, 1.05150970001705, 1.068133300053887, 1.0852682000258937, 1.1011722999392077, 1.1174794000107795, 1.1337242999579757, 1.1519355999771506, 1.1706708000274375, 1.1848233999917284]

pilot_20;10;0;0;1;False;1000;True;;8;-135.96373109380815;drag;L;-5.1591;-5.782727;0;-131.74;7.75;1.2190069000935182;1.219042700016871;1683805221.2603157;1683805221.2703185;1683805222.0260305;1683805222.5239568;1683805223.5060132;1683805224.7248983;[0.0, 0.0, 0.0, 0.0, 0.0, 0.0, 0.0, 0.0, 0.0, 0.0, 0.0, 0.0, 0.0, 0.0, 0.0, 0.0, 0.0, 0.0, 0.0, 0.0, 0.0, 0.0, 0.0, 0.0, 0.0, 0.0, 0.0, 0.0, 0.0, 0.0, 0.0, -0.42520052, -1.2472548, -2.381123, -2.948057, -3.2598708, -3.4299507, -3.4866443, -3.514991, -3.5433376, -3.5716846, -3.5716846, -3.6000311, -3.6567245, -3.7417645, -4.0535784, -4.1953115, -4.337045, -4.3937387, -4.563819, -4.6772056, -4.762246, -4.7905927, -4.818939, -4.847286, -4.847286, -4.875633, -4.9039793, -4.9039793, -4.932326, -4.932326, -4.932326, -4.9890194, -5.017366, -5.017366, -5.0740595, -5.1024065, -5.1024065, -5.130753, -5.130753, -5.1591, -5.1591, -5.1591];[0.0, 0.0, 0.0, 0.0, 0.0, 0.0, 0.0, 0.0, 0.0, 0.0, 0.0, 0.0, 0.0, 0.0, 0.0, 0.0, 0.0, 0.0, 0.0, 0.0, 0.0, 0.0, 0.0, 0.0, 0.0, 0.0, 0.0, 0.0, 0.0, 0.0, 0.0, -0.6803208, -2.381123, -4.648859, -5.6409936, -6.0661945, -6.2362742, -6.264621, -6.292968, -6.292968, -6.292968, -6.292968, -6.292968, -6.321315, -6.4063544, -6.6614747, -6.774862, -6.831555, -6.8599014, -6.831555, -6.7181687, -6.6047816, -6.5197415, -6.491395, -6.4630475, -6.434701, -6.378008, -6.3496614, -6.264621, -6.2079277, -6.151234, -6.094541, -6.0095005, -5.924461, -5.8677673, -5.8394203, -5.811074, -5.811074, -5.782727, -5.782727, -5.782727, -5.782727, -5.782727];[0.0033647000091150403, 0.019352299976162612, 0.0347689000191167, 0.052358000073581934, 0.06921039998997003, 0.08508300001267344, 0.10083700006362051, 0.11900399997830391, 0.13609020004514605, 0.15400390001013875, 0.16967770003248006, 0.18969640007708222, 0.20359960000496358, 0.22054080001544207, 0.2368472000816837, 0.2527651999844238, 0.26939520006999373, 0.28647280007135123, 0.302786200074479, 0.32106350001413375, 0.33596749999560416, 0.35391689999960363, 0.37041279999539256, 0.38751050003338605, 0.4041533999843523, 0.4210777999833226, 0.4361405000090599, 0.45402330008801073, 0.47000370000023395, 0.48626959999091923, 0.5030650000553578, 0.5201629999792203, 0.535190400085412, 0.5522554999915883, 0.5684536000480875, 0.5854739000787959, 0.6021125999977812, 0.6199092000024393, 0.6356607000343502, 0.6539065000833943, 0.6722402999876067, 0.6864292999962345, 0.7025831000646576, 0.72230160003528, 0.7363226000452414, 0.753652699990198, 0.7686942000873387, 0.7859371000668034, 0.8019218000117689, 0.8200927000725642, 0.8358800000278279, 0.8532871999777853, 0.8697437000228092, 0.8877442000666633, 0.9029569000704214, 0.9199242000468075, 0.9355834000743926, 0.9543651000130922, 0.9704927999991924, 0.9871819000691175, 1.0034466000506654, 1.0203086000401527, 1.0348018000368029, 1.0532272000564262, 1.0704380000242963, 1.0884299000026658, 1.1022832000162452, 1.1201381999999285, 1.1359222000464797, 1.1534252000274137, 1.1687655000714585, 1.1869206000119448, 1.2027465000282973]

pilot_20;11;0;0;1;False;3000;True;;8;48.89574381977876;drag;L;4.733899;5.75438;0;50.56;7.45;1.2136815000558272;1.2139754999661818;1683805225.4685502;1683805225.4876468;1683805226.24136;1683805226.742787;1683805229.7430108;1683805230.956873;[0.0, 0.0, 0.0, 0.0, 0.0, 0.0, 0.0, 0.0, 0.0, 0.0, 0.0, 0.0, 0.0, 0.0, 0.0, 0.0, 0.0, 0.0, 0.0, 0.0, 0.0, 0.0, 0.0, 0.0, 0.0, 0.0, 0.0, 0.0, 0.0, 0.0, 0.0, 0.1133868, 0.2551203, 0.48189393, 0.6803208, 0.85040104, 1.0488279, 1.1622148, 1.2756016, 1.5874153, 1.899229, 2.211043, 2.6078966, 2.7212832, 2.8630168, 2.9764037, 3.316564, 3.5433376, 3.713418, 3.8834982, 3.968538, 4.081925, 4.166965, 4.252005, 4.337045, 4.3937387, 4.422086, 4.422086, 4.4504323, 4.478779, 4.5354724, 4.620512, 4.648859, 4.6772056, 4.7055526, 4.7055526, 4.733899, 4.733899, 4.733899, 4.733899, 4.733899, 4.733899, 4.733899];[0.0, 0.0, 0.0, 0.0, 0.0, 0.0, 0.0, 0.0, 0.0, 0.0, 0.0, 0.0, 0.0, 0.0, 0.0, 0.0, 0.0, 0.0, 0.0, 0.0, 0.0, 0.0, 0.0, 0.0, 0.0, 0.0, 0.0, 0.0, 0.0, 0.0, 0.0, 0.0850401, 0.2551203, 0.5102406, 0.73701423, 0.93544114, 1.1338681, 1.2472548, 1.332295, 1.6157619, 1.9275757, 2.2393894, 2.6362433, 2.7779768, 2.9197102, 3.0897903, 3.514991, 3.8268046, 4.110272, 4.2236586, 4.365392, 4.478779, 4.620512, 4.733899, 4.932326, 4.9890194, 5.045713, 5.0740595, 5.130753, 5.1874466, 5.32918, 5.4709134, 5.5559535, 5.612647, 5.66934, 5.66934, 5.7260337, 5.7260337, 5.75438, 5.75438, 5.75438, 5.75438, 5.75438];[0.004498299909755588, 0.017126799910329282, 0.03379249991849065, 0.049184300005435944, 0.06588939996436238, 0.08223649999126792, 0.09982929995749146, 0.11639769992325455, 0.1346974999178201, 0.15070679993368685, 0.16749499994330108, 0.1843528999015689, 0.19975739996880293, 0.21685309999156743, 0.23309769993647933, 0.24924569996073842, 0.26818879996426404, 0.28259379998780787, 0.3006099999183789, 0.31741309992503375, 0.33343649993184954, 0.3494878999190405, 0.3670616999734193, 0.3832948999479413, 0.3993260000133887, 0.41610979998949915, 0.4345081999199465, 0.44968630000948906, 0.4664393999846652, 0.4829829999944195, 0.501549799926579, 0.5174599000019953, 0.5323666000040248, 0.5492577999830246, 0.5670720000052825, 0.5813470999710262, 0.6003567998996004, 0.6162131999153644, 0.6332577998982742, 0.6499621999682859, 0.6662074999185279, 0.6819613999687135, 0.7009244000073522, 0.7159002999542281, 0.7337129999650642, 0.7508334999438375, 0.7665922999149188, 0.7819357999833301, 0.8000899999169633, 0.8155765999108553, 0.8313986998982728, 0.8497304999036714, 0.869456399930641, 0.8817156999139115, 0.8986777999671176, 0.916749499971047, 0.9326672999886796, 0.9487997000105679, 0.9662598998984322, 0.9841931000119075, 1.0001923999516293, 1.0171427999157459, 1.0312486999901012, 1.050079399952665, 1.0685486999573186, 1.0818174999440089, 1.0998336999909952, 1.1164588999236003, 1.134896499919705, 1.1487848999677226, 1.166300099925138, 1.1846176999388263, 1.1997812999179587]

pilot_20;12;0;0;1;False;1000;True;;8;-36.97711484234304;drag;L;6.4063544;-4.6772056;0;-36.13;7.93;1.5164157999679446;1.5164748999523;1683805231.7390184;1683805231.7537365;1683805232.508731;1683805233.008238;1683805233.9906542;1683805235.5067701;[0.0, 0.0, 0.0, 0.0, 0.0, 0.0, 0.0, 0.0, 0.0, 0.0, 0.0, 0.0, 0.0, 0.0, 0.0, 0.0, 0.0, 0.0, 0.0, 0.0, 0.0, 0.0, 0.0, 0.0, 0.0, 0.0, 0.0, 0.0, 0.0, 0.0, 0.0, 0.0, 0.0, 0.0, 0.85040104, 1.4456817, 1.7858423, 1.899229, 1.899229, 1.9275757, 1.9275757, 1.9559225, 1.984269, 1.984269, 2.0409625, 2.0693092, 2.1260026, 2.211043, 2.381123, 2.8063235, 3.146484, 3.514991, 4.081925, 4.5071254, 4.875633, 5.017366, 5.0740595, 5.1591, 5.215793, 5.3575263, 5.4992604, 5.75438, 6.0095005, 6.151234, 6.2362742, 6.321315, 6.321315, 6.378008, 6.4063544, 6.434701, 6.434701, 6.4630475, 6.4630475, 6.4630475, 6.4630475, 6.491395, 6.491395, 6.491395, 6.491395, 6.491395, 6.491395, 6.4630475, 6.4630475, 6.434701, 6.434701, 6.4063544, 6.4063544, 6.4063544, 6.4063544, 6.4063544, 6.4063544];[0.0, 0.0, 0.0, 0.0, 0.0, 0.0, 0.0, 0.0, 0.0, 0.0, 0.0, 0.0, 0.0, 0.0, 0.0, 0.0, 0.0, 0.0, 0.0, 0.0, 0.0, 0.0, 0.0, 0.0, 0.0, 0.0, 0.0, 0.0, 0.0, 0.0, 0.0, 0.0, 0.0, 0.0, -0.79370767, -1.3039483, -1.6724553, -1.7574955, -1.7574955, -1.7858423, -1.7858423, -1.8141888, -1.8708823, -1.9275757, -2.0409625, -2.1543493, -2.3244295, -2.4094696, -2.5228565, -2.7779768, -2.9197102, -3.0614438, -3.2882173, -3.4866443, -3.6283777, -3.713418, -3.7417645, -3.798458, -3.798458, -3.8834982, -3.996885, -4.110272, -4.2236586, -4.2803516, -4.3086987, -4.337045, -4.337045, -4.365392, -4.3937387, -4.3937387, -4.422086, -4.422086, -4.422086, -4.4504323, -4.4504323, -4.4504323, -4.4504323, -4.478779, -4.478779, -4.5354724, -4.5354724, -4.563819, -4.5921655, -4.648859, -4.648859, -4.6772056, -4.6772056, -4.6772056, -4.6772056, -4.6772056, -4.6772056];[0.003897799993865192, 0.018802699982188642, 0.034346999949775636, 0.050899900030344725, 0.0664161000167951, 0.08551370003260672, 0.10081490001175553, 0.11767369997687638, 0.13512849994003773, 0.15372079994995147, 0.16838829999323934, 0.18709479994140565, 0.20076919998973608, 0.21906779997516423, 0.2348585999570787, 0.25224449997767806, 0.268447499955073, 0.28442549996543676, 0.300671000033617, 0.3186980999307707, 0.33342529996298254, 0.35100969998165965, 0.3675753000425175, 0.3853233000263572, 0.40152209997177124, 0.41975050000473857, 0.434697899967432, 0.45287289994303137, 0.46916320000309497, 0.48655789997428656, 0.5010003999341279, 0.5178284000139683, 0.5346321000251919, 0.5510634999955073, 0.5685836999909952, 0.5845972000388429, 0.6005479999585077, 0.6200034000212327, 0.6341960999416187, 0.6517382999882102, 0.6665284000337124, 0.6856687000254169, 0.7004400000441819, 0.7181342999683693, 0.7348359000170603, 0.7516878999304026, 0.7670590999769047, 0.7855050000362098, 0.8028150999452919, 0.8196162999374792, 0.8332654000259936, 0.8515753999818116, 0.8698559999465942, 0.8862898999359459, 0.9007986999349669, 0.9215245000086725, 0.9342194999335334, 0.9544883000198752, 0.9696680000051856, 0.9846278999466449, 1.0012976999860257, 1.0191076999763027, 1.0356519999913871, 1.050327599979937, 1.0670529999770224, 1.087378800031729, 1.1008531999541447, 1.1184696999844164, 1.1367868999950588, 1.1506990999914706, 1.1685484999325126, 1.184979800018482, 1.2014843999641016, 1.2190032999496907, 1.234138699946925, 1.2525747999316081, 1.268241300014779, 1.2862044000066817, 1.3004179999697953, 1.3178315999684855, 1.3344441000372171, 1.3513416999485344, 1.3674456999870017, 1.3849282000446692, 1.4031561999581754, 1.4174472000449896, 1.4340093999635428, 1.4518662999616936, 1.468749799998477, 1.4851411000126973, 1.50192850001622]

pilot_20;13;0;0;1;False;3000;True;;8;87.52296983468717;drag;L;-0.8220543;7.228409;0;96.49;7.28;1.3151288001099601;1.3152380000101402;1683805236.4118736;1683805236.4188888;1683805237.1743417;1683805237.6755567;1683805240.674527;1683805241.9899335;[0.0, 0.0, 0.0, 0.0, 0.0, 0.0, 0.0, 0.0, 0.0, 0.0, 0.0, 0.0, 0.0, 0.0, 0.0, 0.0, 0.0, 0.0, 0.0, 0.0, 0.0, 0.0, 0.0, 0.0, 0.0, 0.0, 0.0, 0.0, 0.0, 0.0, -0.3401604, -0.4535472, -0.48189393, -0.5102406, -0.53858733, -0.56693405, -0.59528077, -0.6236274, -0.6803208, -0.7086675, -0.73701423, -0.73701423, -0.76536095, -0.79370767, -0.85040104, -0.85040104, -0.87874776, -0.9070944, -0.9070944, -0.9070944, -0.93544114, -0.93544114, -0.96378785, -1.0204812, -1.0204812, -1.0204812, -1.0204812, -1.0204812, -1.0204812, -1.0204812, -1.0204812, -1.0204812, -1.0204812, -0.9921345, -0.96378785, -0.9070944, -0.87874776, -0.87874776, -0.85040104, -0.8220543, -0.8220543, -0.8220543, -0.8220543, -0.8220543, -0.8220543, -0.8220543, -0.8220543, -0.8220543, -0.8220543];[0.0, 0.0, 0.0, 0.0, 0.0, 0.0, 0.0, 0.0, 0.0, 0.0, 0.0, 0.0, 0.0, 0.0, 0.0, 0.0, 0.0, 0.0, 0.0, 0.0, 0.0, 0.0, 0.0, 0.0, 0.0, 0.0, 0.0, 0.0, 0.0, 0.0, 1.0488279, 1.4456817, 1.6157619, 1.7574955, 2.1543493, 2.5228565, 2.9764037, 4.110272, 4.478779, 4.648859, 4.818939, 4.9890194, 5.300833, 5.5559535, 5.75438, 5.896114, 5.9528074, 5.981154, 6.0095005, 6.037847, 6.094541, 6.2079277, 6.321315, 6.434701, 6.5197415, 6.5764346, 6.6047816, 6.6614747, 6.6898212, 6.6898212, 6.7181687, 6.7181687, 6.774862, 6.8599014, 6.944942, 7.0016356, 7.0583286, 7.1150217, 7.2000623, 7.228409, 7.228409, 7.228409, 7.228409, 7.228409, 7.228409, 7.228409, 7.228409, 7.228409, 7.228409];[0.0034703999990597367, 0.017671899986453354, 0.03443409991450608, 0.05015219992492348, 0.06697579997126013, 0.08333249995484948, 0.10193160001654178, 0.11664359993301332, 0.1344182000029832, 0.15103409998118877, 0.1673571999417618, 0.1836771999951452, 0.19981999997980893, 0.216504400013946, 0.23658209992572665, 0.2514984000008553, 0.2677557999268174, 0.2842487000161782, 0.3004326999653131, 0.3169866999378428, 0.33579529996495694, 0.350595899973996, 0.36593079997692257, 0.3831261999439448, 0.4000895000062883, 0.4166918999981135, 0.4324959999648854, 0.45022479991894215, 0.46676430001389235, 0.48337379994336516, 0.49978219997137785, 0.5172233999473974, 0.5335893000010401, 0.5492772000143304, 0.5664736999897286, 0.5831722000148147, 0.600278600002639, 0.6180108999833465, 0.6330195999471471, 0.6490197000093758, 0.6652670999756083, 0.6831709999823943, 0.6994002999272197, 0.7159284999361262, 0.7340101000154391, 0.7509715999476612, 0.7658460999373347, 0.7817665999755263, 0.8012741999700665, 0.815263899974525, 0.8331481999484822, 0.8496213000034913, 0.8661391999339685, 0.8826017999090254, 0.9009552999632433, 0.9180018999613822, 0.9329158999025822, 0.9502956999931484, 0.9655363999772817, 0.9822072999086231, 1.0006277000065893, 1.0155995999230072, 1.0331464000046253, 1.0499068999197334, 1.066959899966605, 1.0827935999259353, 1.1010056999512017, 1.1159609999740496, 1.134573599905707, 1.1503276999574155, 1.1672156999120489, 1.1824078999925405, 1.1997948999051005, 1.2162659999448806, 1.2328164000064135, 1.2498212999198586, 1.2671880999114364, 1.2824134000111371, 1.2997092999285087]

pilot_20;14;0;0;1;False;3000;True;;8;113.0658764030907;drag;L;-4.110272;6.434701;0;122.57;7.64;1.9166324000107124;1.9168658999260515;1683805242.678784;1683805242.686817;1683805243.4407146;1683805243.9426298;1683805246.941451;1683805248.8590121;[0.0, 0.0, 0.0, 0.0, 0.0, 0.0, 0.0, 0.0, 0.0, 0.0, 0.0, 0.0, 0.0, 0.0, 0.0, 0.0, 0.0, 0.0, 0.0, 0.0, 0.0, 0.0, 0.0, 0.0, 0.0, 0.0, 0.0, 0.0, 0.0, 0.0, 0.0, 0.0, 0.0, 0.0, -0.14173351, -0.19842692, -0.19842692, -0.2267736, -0.2551203, -0.28346702, -0.3118137, -0.4535472, -0.6236274, -0.8220543, -1.0204812, -1.3039483, -1.7574955, -1.8708823, -1.9275757, -1.984269, -2.0409625, -2.0693092, -2.2393894, -2.4094696, -2.5512033, -2.7212832, -2.8630168, -2.948057, -3.0047503, -3.0614438, -3.0897903, -3.146484, -3.2598708, -3.316564, -3.316564, -3.316564, -3.316564, -3.316564, -3.316564, -3.316564, -3.316564, -3.316564, -3.316564, -3.316564, -3.316564, -3.316564, -3.316564, -3.316564, -3.316564, -3.316564, -3.316564, -3.3449106, -3.3732576, -3.4016042, -3.4299507, -3.4299507, -3.4299507, -3.4299507, -3.4299507, -3.4299507, -3.4299507, -3.4299507, -3.4582977, -3.514991, -3.6567245, -3.8834982, -3.996885, -4.025232, -4.0535784, -4.081925, -4.081925, -4.110272, -4.110272, -4.110272, -4.110272, -4.110272, -4.110272, -4.110272, -4.110272, -4.110272, -4.110272, -4.110272, -4.110272, -4.110272, -4.110272];[0.0, 0.0, 0.0, 0.0, 0.0, 0.0, 0.0, 0.0, 0.0, 0.0, 0.0, 0.0, 0.0, 0.0, 0.0, 0.0, 0.0, 0.0, 0.0, 0.0, 0.0, 0.0, 0.0, 0.0, 0.0, 0.0, 0.0, 0.0, 0.0, 0.0, 0.0, 0.0, 0.0, 0.0, 0.3118137, 0.36850712, 0.42520052, 0.42520052, 0.42520052, 0.4535472, 0.48189393, 0.7086675, 0.96378785, 1.2472548, 1.5590686, 2.0409625, 3.6567245, 4.3937387, 4.563819, 4.648859, 4.6772056, 4.6772056, 4.6772056, 4.733899, 4.818939, 4.932326, 5.045713, 5.1024065, 5.130753, 5.215793, 5.2441397, 5.2441397, 5.2724867, 5.2724867, 5.2724867, 5.2724867, 5.2724867, 5.2724867, 5.2724867, 5.2724867, 5.2724867, 5.2724867, 5.2724867, 5.2724867, 5.2724867, 5.2724867, 5.2724867, 5.2724867, 5.2724867, 5.2724867, 5.2724867, 5.3575263, 5.41422, 5.4425664, 5.4709134, 5.4709134, 5.4992604, 5.4992604, 5.4992604, 5.4992604, 5.4992604, 5.527607, 5.5559535, 5.6409936, 5.811074, 6.094541, 6.1795807, 6.2362742, 6.264621, 6.292968, 6.292968, 6.292968, 6.321315, 6.3496614, 6.378008, 6.378008, 6.4063544, 6.4063544, 6.4063544, 6.434701, 6.434701, 6.434701, 6.434701, 6.434701, 6.434701];[0.005152300000190735, 0.019390499917790294, 0.03428449993953109, 0.04813619994092733, 0.06660819996614009, 0.08437820000108331, 0.10188449989072978, 0.11558519990649074, 0.13271569996140897, 0.14881749998312443, 0.1676155999302864, 0.18543089996092021, 0.20012839999981225, 0.2168062999844551, 0.23321099998429418, 0.24916589993517846, 0.2672560999635607, 0.2829564999556169, 0.30102949996944517, 0.31629999994765967, 0.3330844999291003, 0.3491121999686584, 0.3669362999498844, 0.383465199964121, 0.4005682999268174, 0.4177182998973876, 0.4347645998932421, 0.4503197999438271, 0.4670820999890566, 0.4831854999065399, 0.49974519992247224, 0.5153226999100298, 0.5321059999987483, 0.5481721999822184, 0.5657627999316901, 0.5817116999533027, 0.5991337999003008, 0.6161802998976782, 0.6324864999623969, 0.6494701999472454, 0.6668040999211371, 0.6837343999650329, 0.6998218999942765, 0.7159676000010222, 0.7338152999291196, 0.7485179998911917, 0.7677408999297768, 0.7824160999152809, 0.7994896000018343, 0.816433799918741, 0.8326436999486759, 0.8481734999222681, 0.8673548999940977, 0.8839990999549627, 0.8994292999850586, 0.9154632999561727, 0.9326676999917254, 0.9482101999456063, 0.9663027999922633, 0.983594199991785, 0.9986502999672666, 1.0145636999513954, 1.0333769998978823, 1.048528999905102, 1.0663466999540105, 1.0823645999189466, 1.1008852999657393, 1.1169709999812767, 1.1325234998948872, 1.1497467999579385, 1.1681749999988824, 1.183257699944079, 1.2011424999218434, 1.2176457999739796, 1.233942599967122, 1.2500083999475464, 1.266058799927123, 1.282785499934107, 1.2992154998937622, 1.315649800002575, 1.332452799892053, 1.3501278999028727, 1.3660504999570549, 1.3836775999516249, 1.3993908999254927, 1.4153632998932153, 1.4332930999808013, 1.4488923999015242, 1.465275099966675, 1.4814817999722436, 1.500340599915944, 1.5167782999342307, 1.5335120999952778, 1.5485134999034926, 1.5656713999342173, 1.582474899943918, 1.5997878999914974, 1.6174820999149233, 1.6330929999239743, 1.649692599894479, 1.6660325999837369, 1.6823611999861896, 1.7004119999473915, 1.715725699905306, 1.7345502999378368, 1.7497223999816924, 1.7670692999381572, 1.782104599988088, 1.8011020999401808, 1.8161076999967918, 1.8343236999353394, 1.8494366999948397, 1.8665409999666736, 1.882731599966064, 1.8997789999702945]

pilot_20;15;0;0;1;False;1000;True;;8;-59.51971589826262;drag;L;4.1953115;-6.8032084;0;-58.34;7.99;1.4311778000555933;1.4312537000514567;1683805249.5726643;1683805249.5857053;1683805250.341907;1683805250.843257;1683805251.824734;1683805253.2562308;[0.0, 0.0, 0.0, 0.0, 0.0, 0.0, 0.0, 0.0, 0.0, 0.0, 0.0, 0.0, 0.0, 0.0, 0.0, 0.0, 0.0, 0.0, 0.0, 0.0, 0.0, 0.0, 0.0, 0.0, 0.0, 0.0, 0.0, 0.0, 0.0, 0.0, 0.0, 0.0, 0.0, 0.0, 0.0, 1.7008021, 2.8913634, 4.025232, 4.7055526, 4.960673, 4.960673, 4.960673, 4.960673, 4.960673, 4.960673, 4.960673, 4.960673, 4.960673, 4.960673, 4.960673, 4.960673, 4.960673, 4.960673, 4.960673, 4.960673, 4.960673, 4.960673, 4.960673, 4.960673, 4.960673, 4.960673, 4.960673, 4.9039793, 4.875633, 4.7905927, 4.762246, 4.7055526, 4.6772056, 4.6772056, 4.648859, 4.620512, 4.5921655, 4.5071254, 4.4504323, 4.3937387, 4.365392, 4.337045, 4.3086987, 4.2803516, 4.2803516, 4.2236586, 4.2236586, 4.2236586, 4.2236586, 4.2236586, 4.1953115];[0.0, 0.0, 0.0, 0.0, 0.0, 0.0, 0.0, 0.0, 0.0, 0.0, 0.0, 0.0, 0.0, 0.0, 0.0, 0.0, 0.0, 0.0, 0.0, 0.0, 0.0, 0.0, 0.0, 0.0, 0.0, 0.0, 0.0, 0.0, 0.0, 0.0, 0.0, 0.0, 0.0, 0.0, 0.0, -2.8063235, -4.762246, -6.4063544, -7.228409, -7.483529, -7.5118756, -7.5118756, -7.5118756, -7.5118756, -7.5118756, -7.5118756, -7.5118756, -7.5118756, -7.5118756, -7.5118756, -7.5118756, -7.5118756, -7.5118756, -7.5118756, -7.5118756, -7.5118756, -7.5118756, -7.5118756, -7.5118756, -7.5118756, -7.5118756, -7.483529, -7.3984895, -7.341796, -7.2567554, -7.1717157, -7.086675, -7.0583286, -7.029982, -7.0016356, -7.0016356, -6.944942, -6.944942, -6.9165955, -6.9165955, -6.888248, -6.8599014, -6.8599014, -6.831555, -6.831555, -6.8032084, -6.8032084, -6.8032084, -6.8032084, -6.8032084, -6.8032084];[0.004045800073072314, 0.017876700032502413, 0.03429179999511689, 0.05099210003390908, 0.06605660007335246, 0.08403350005391985, 0.10006520000752062, 0.11857430008240044, 0.13270710001233965, 0.15037620009388775, 0.1665593000361696, 0.18355210009030998, 0.2003135000122711, 0.21573609998449683, 0.2322436000686139, 0.25014320004265755, 0.2661625000182539, 0.2833870000904426, 0.3012141000945121, 0.31689390004612505, 0.3320823000976816, 0.3507770000724122, 0.3659300000872463, 0.3831233000382781, 0.40027360001113266, 0.4173751000780612, 0.4332338999956846, 0.45116100006271154, 0.46766419999767095, 0.48413640004582703, 0.5005533000221476, 0.5170487000141293, 0.5318715000757948, 0.5483966000610963, 0.5652342000976205, 0.5846029000822455, 0.5984016000293195, 0.6160034000640735, 0.6333061000332236, 0.6510470000794157, 0.6665655000833794, 0.6838503000326455, 0.699240899994038, 0.7157883000327274, 0.7323381000896916, 0.751085800002329, 0.7656307000434026, 0.7822864000918344, 0.79851640004199, 0.8162792000221089, 0.8329328000545502, 0.8488233000971377, 0.8664443000452593, 0.8828764000209048, 0.8990892000729218, 0.9157477000262588, 0.9320277000078931, 0.949314400088042, 0.9648036999860778, 0.9835679000243545, 0.999371699988842, 1.0155267000664026, 1.0321252000285313, 1.0489674999844283, 1.0659006000496447, 1.0825508000561967, 1.098811800009571, 1.1162254000082612, 1.132988200057298, 1.1500279000028968, 1.1657598000019789, 1.1838356000371277, 1.1999976000515744, 1.2161537000210956, 1.2327509000897408, 1.2503026000922546, 1.2649950000923127, 1.282372000045143, 1.2990188000258058, 1.3158887000754476, 1.3333227999974042, 1.3489816000219434, 1.3667131999973208, 1.3831363000208512, 1.3990186000009999, 1.4155762000009418]

pilot_20;16;0;0;1;False;3000;True;;8;-134.7727641128905;drag;L;-4.9890194;-5.5843005;0;-131.78;7.49;1.115219899918884;1.1153002000646666;1683805254.0815797;1683805254.0850444;1683805254.8388078;1683805255.341965;1683805258.3404264;1683805259.4557965;[0.0, 0.0, 0.0, 0.0, 0.0, 0.0, 0.0, 0.0, 0.0, 0.0, 0.0, 0.0, 0.0, 0.0, 0.0, 0.0, 0.0, 0.0, 0.0, 0.0, 0.0, 0.0, 0.0, 0.0, 0.0, 0.0, 0.0, 0.0, 0.0, 0.0, 0.0, -0.56693405, -1.0488279, -1.5023751, -1.9559225, -2.66459, -2.948057, -3.0897903, -3.2598708, -3.4299507, -3.5433376, -3.6567245, -3.713418, -3.8268046, -3.996885, -4.081925, -4.166965, -4.2236586, -4.2803516, -4.3086987, -4.365392, -4.620512, -4.762246, -4.847286, -4.875633, -4.9039793, -4.932326, -4.960673, -4.9890194, -4.9890194, -4.9890194, -4.9890194, -4.9890194, -4.9890194, -4.9890194, -4.9890194, -4.9890194];[0.0, 0.0, 0.0, 0.0, 0.0, 0.0, 0.0, 0.0, 0.0, 0.0, 0.0, 0.0, 0.0, 0.0, 0.0, 0.0, 0.0, 0.0, 0.0, 0.0, 0.0, 0.0, 0.0, 0.0, 0.0, 0.0, 0.0, 0.0, 0.0, 0.0, 0.0, -0.76536095, -1.3039483, -1.7858423, -2.182696, -2.7212832, -2.8913634, -3.0047503, -3.0897903, -3.2315238, -3.2882173, -3.316564, -3.4016042, -3.4866443, -3.6567245, -3.798458, -3.8834982, -3.9401915, -4.025232, -4.081925, -4.252005, -4.9039793, -5.1874466, -5.3575263, -5.41422, -5.4709134, -5.4992604, -5.5559535, -5.5559535, -5.5843005, -5.5843005, -5.5843005, -5.5843005, -5.5843005, -5.5843005, -5.5843005, -5.5843005];[0.003966100048273802, 0.0169483000645414, 0.03479089995380491, 0.05022460001055151, 0.06808140000794083, 0.08517129998654127, 0.1010051000630483, 0.11767010006587952, 0.1347298000473529, 0.15108330000657588, 0.1692375000566244, 0.18306399998255074, 0.20186260004993528, 0.21832440001890063, 0.23271969996858388, 0.2492066000122577, 0.26600030006375164, 0.2822122999932617, 0.3004170999629423, 0.3164059000555426, 0.3334474000148475, 0.35198499995749444, 0.36798219999764115, 0.38300859997980297, 0.40200730005744845, 0.41675580001901835, 0.43332339997868985, 0.4500000999541953, 0.4676604999694973, 0.4837299999780953, 0.5006025000475347, 0.5159697000635788, 0.5340869000647217, 0.5508704000385478, 0.5675750999944285, 0.5831000000471249, 0.5992443000432104, 0.615452800062485, 0.6338742000516504, 0.6493150000460446, 0.6661184000549838, 0.6823475999990478, 0.7004154999740422, 0.7159141000593081, 0.733235300052911, 0.7497210999717936, 0.7665904000168666, 0.7831059000454843, 0.7995161999715492, 0.8167305999668315, 0.8358325000153854, 0.8509709000354633, 0.8677901000482962, 0.8830644000554457, 0.9027571000624448, 0.9156139000551775, 0.9334567000623792, 0.9500907000619918, 0.9686530999606475, 0.9822525000199676, 1.0014490999747068, 1.0161891999887303, 1.0336034999927506, 1.049242899985984, 1.0670860999962315, 1.0840490000555292, 1.1003021000651643]

pilot_20;17;0;0;1;False;1000;True;;8;-149.47842366480458;drag;L;-5.981154;-4.081925;0;-145.69;7.24;2.1176093999529257;2.1177242998965085;1683805260.2248042;1683805260.2349222;1683805260.9905813;1683805261.4918768;1683805262.4735756;1683805264.5911934;[0.0, 0.0, 0.0, 0.0, 0.0, 0.0, 0.0, 0.0, 0.0, 0.0, 0.0, 0.0, 0.0, 0.0, 0.0, 0.0, 0.0, 0.0, 0.0, 0.0, 0.0, 0.0, 0.0, 0.0, 0.0, 0.0, 0.0, 0.0, 0.0, 0.0, 0.0, 0.0, 0.0, 0.0, 0.0, 0.0, 0.0, 0.0, 0.0, 0.0, 0.0, 0.0, 0.0, 0.0, 0.0, 0.0, 0.0, 0.0, 0.0, -0.1700802, -0.6803208, -1.2756016, -1.417335, -1.5023751, -1.5590686, -1.5874153, -1.6157619, -1.6157619, -1.6724553, -1.6724553, -1.7008021, -1.8425356, -2.012616, -2.0693092, -2.4378164, -2.7496302, -3.2031772, -3.2031772, -3.2031772, -3.2031772, -3.3449106, -3.5433376, -3.911845, -4.1386185, -4.3086987, -4.422086, -4.5071254, -4.563819, -4.5921655, -4.620512, -4.620512, -4.620512, -4.620512, -4.620512, -4.620512, -4.620512, -4.620512, -4.620512, -4.620512, -4.620512, -4.620512, -4.620512, -4.620512, -4.620512, -5.045713, -5.130753, -5.300833, -5.3575263, -5.3858733, -5.41422, -5.41422, -5.4425664, -5.4709134, -5.5843005, -5.5843005, -5.66934, -5.697687, -5.7260337, -5.75438, -5.811074, -5.8394203, -5.8677673, -5.896114, -5.896114, -5.896114, -5.896114, -5.924461, -5.9528074, -5.9528074, -5.981154, -5.981154, -5.981154, -5.981154, -5.981154, -5.981154, -5.981154, -5.981154];[0.0, 0.0, 0.0, 0.0, 0.0, 0.0, 0.0, 0.0, 0.0, 0.0, 0.0, 0.0, 0.0, 0.0, 0.0, 0.0, 0.0, 0.0, 0.0, 0.0, 0.0, 0.0, 0.0, 0.0, 0.0, 0.0, 0.0, 0.0, 0.0, 0.0, 0.0, 0.0, 0.0, 0.0, 0.0, 0.0, 0.0, 0.0, 0.0, 0.0, 0.0, 0.0, 0.0, 0.0, 0.0, 0.0, 0.0, 0.0, 0.0, -0.14173351, -0.6803208, -1.3606416, -1.5023751, -1.5590686, -1.5874153, -1.5874153, -1.5874153, -1.5874153, -1.6157619, -1.6157619, -1.6441087, -1.7574955, -1.8708823, -1.899229, -2.1260026, -2.2960827, -2.57955, -2.57955, -2.57955, -2.57955, -2.6078966, -2.6929367, -2.8630168, -3.0047503, -3.1181371, -3.2315238, -3.316564, -3.3732576, -3.4016042, -3.4016042, -3.4016042, -3.4016042, -3.4016042, -3.4016042, -3.4016042, -3.4016042, -3.4016042, -3.4016042, -3.4016042, -3.4016042, -3.4016042, -3.4016042, -3.4016042, -3.4016042, -3.514991, -3.5433376, -3.5433376, -3.5433376, -3.5716846, -3.5716846, -3.6000311, -3.6283777, -3.6283777, -3.713418, -3.7417645, -3.770111, -3.798458, -3.8268046, -3.8551514, -3.8834982, -3.911845, -3.911845, -3.9401915, -3.968538, -3.968538, -3.996885, -3.996885, -4.025232, -4.025232, -4.0535784, -4.0535784, -4.081925, -4.081925, -4.081925, -4.081925, -4.081925, -4.081925];[0.004358299891464412, 0.018618099973537028, 0.03480769996531308, 0.05239679990336299, 0.06755389994941652, 0.08582659997045994, 0.10211479989811778, 0.11865359998773783, 0.1350948999170214, 0.1526930999243632, 0.1666251999558881, 0.1860103999497369, 0.1998107999097556, 0.2184906000038609, 0.23554859997238964, 0.2520404999377206, 0.2670729999663308, 0.2855167998932302, 0.30127339996397495, 0.3186888999771327, 0.3346415999112651, 0.3518543998943642, 0.367900799959898, 0.38393369992263615, 0.400258099893108, 0.41911829996388406, 0.4347069999203086, 0.45231629989575595, 0.46770099992863834, 0.4834909999044612, 0.5013944999082014, 0.5172892999835312, 0.534936299896799, 0.5525061999214813, 0.5663728999206796, 0.5850261999294162, 0.6017365999286994, 0.620064599905163, 0.6349379000021145, 0.6508908999385312, 0.6668557999655604, 0.6857720999978483, 0.6990962999407202, 0.7177756999153644, 0.733589299954474, 0.7507848999230191, 0.7669976999750361, 0.7836233999114484, 0.8012807999039069, 0.8181094999890774, 0.8331256998935714, 0.8510742998914793, 0.8676884999731556, 0.8847489999607205, 0.8990390999242663, 0.9166825999272987, 0.9341144999489188, 0.9508369999239221, 0.9679787999484688, 0.9843829999445006, 1.0005818998906761, 1.020147699979134, 1.0339911999180913, 1.0504369999980554, 1.06592239998281, 1.0840963999507949, 1.1029111999087036, 1.116087699891068, 1.1325731999240816, 1.151703399955295, 1.1677579999668524, 1.1838688999414444, 1.2012133999960497, 1.2189551999326795, 1.2343802999239415, 1.250897099962458, 1.269035100005567, 1.2833302998915315, 1.3002656999742612, 1.3174375999951735, 1.333242499968037, 1.3513610999798402, 1.3670940999872983, 1.3850327999098226, 1.4001389999175444, 1.4176321999402717, 1.4341828000033274, 1.45119649998378, 1.4674321999773383, 1.4862584999063984, 1.5011706999503076, 1.5170124999713153, 1.5341969999717548, 1.5524390999926254, 1.570553999976255, 1.5843652999028563, 1.5997662999434397, 1.618667299975641, 1.6346344999037683, 1.6515021999366581, 1.6659083999693394, 1.6861773999407887, 1.7009677999885753, 1.7210235999664292, 1.7338161999359727, 1.7503218000056222, 1.7673110999166965, 1.7866577999666333, 1.7995841999072582, 1.8175377999432385, 1.833372899913229, 1.8508108999812976, 1.8676972999237478, 1.8839259999804199, 1.8993621999397874, 1.9188071999233216, 1.9334738999605179, 1.9518628999358043, 1.9664648999460042, 1.9847780999261886, 1.9999390000011772, 2.0197982999961823, 2.0336329999845475, 2.05196749989409, 2.0688896999927238, 2.0846934999572113, 2.0994934999616817]

pilot_20;18;0;0;1;False;3000;True;;8;-47.55448212460783;drag;L;5.215793;-6.0661945;0;-49.31;8.0;1.3827483999775723;1.3828041000524536;1683805265.2546413;1683805265.2693045;1683805266.0233903;1683805266.5241325;1683805269.5227964;1683805270.9052846;[0.0, 0.0, 0.0, 0.0, 0.0, 0.0, 0.0, 0.0, 0.0, 0.0, 0.0, 0.0, 0.0, 0.0, 0.0, 0.0, 0.0, 0.0, 0.0, 0.0, 0.0, 0.0, 0.0, 0.0, 0.0, 0.0, 0.0, 0.0, 0.0, 0.0, 0.28346702, 0.8220543, 1.1622148, 1.5023751, 1.6157619, 1.7858423, 1.9559225, 2.1543493, 2.4378164, 2.57955, 2.7212832, 2.9197102, 3.0330973, 3.2031772, 3.514991, 3.770111, 3.9401915, 3.996885, 4.0535784, 4.081925, 4.110272, 4.1953115, 4.365392, 4.4504323, 4.478779, 4.478779, 4.5071254, 4.5354724, 4.563819, 4.5921655, 4.620512, 4.648859, 4.648859, 4.6772056, 4.733899, 4.875633, 4.9890194, 5.0740595, 5.130753, 5.1591, 5.1874466, 5.1874466, 5.215793, 5.215793, 5.215793, 5.215793, 5.215793, 5.215793, 5.215793, 5.215793, 5.215793, 5.215793, 5.215793];[0.0, 0.0, 0.0, 0.0, 0.0, 0.0, 0.0, 0.0, 0.0, 0.0, 0.0, 0.0, 0.0, 0.0, 0.0, 0.0, 0.0, 0.0, 0.0, 0.0, 0.0, 0.0, 0.0, 0.0, 0.0, 0.0, 0.0, 0.0, 0.0, 0.0, -0.2551203, -0.9070944, -1.2756016, -1.5307219, -1.6157619, -1.7008021, -1.7858423, -1.899229, -2.0693092, -2.1543493, -2.211043, -2.2960827, -2.381123, -2.4945097, -2.9197102, -3.2315238, -3.4299507, -3.514991, -3.5716846, -3.6000311, -3.713418, -3.911845, -4.478779, -4.7055526, -4.7905927, -4.875633, -4.932326, -4.960673, -5.017366, -5.1024065, -5.130753, -5.1591, -5.1591, -5.1874466, -5.300833, -5.4709134, -5.697687, -5.8677673, -5.9528074, -6.0095005, -6.037847, -6.037847, -6.0661945, -6.0661945, -6.0661945, -6.0661945, -6.0661945, -6.0661945, -6.0661945, -6.0661945, -6.0661945, -6.0661945, -6.0661945];[0.0051333000883460045, 0.01842660002876073, 0.034725000034086406, 0.05186800006777048, 0.07012270006816834, 0.08467970008496195, 0.10269319999497384, 0.11879069998394698, 0.13538810005411506, 0.15128980006556958, 0.17024800006765872, 0.18460260005667806, 0.20185150008182973, 0.21753350005019456, 0.23444030003156513, 0.25139540003146976, 0.2678805000614375, 0.28450110007543117, 0.3030113000422716, 0.319053600076586, 0.3359621000709012, 0.3520491999806836, 0.36829810007475317, 0.38395340007264167, 0.4014784999890253, 0.41891840007156134, 0.4340016000205651, 0.4512371000600979, 0.4677793000591919, 0.48304650001227856, 0.5008817000780255, 0.5193992999847978, 0.5344132999889553, 0.5522734000114724, 0.5686582999769598, 0.583466500043869, 0.6026897000847384, 0.6172177999978885, 0.6347248000092804, 0.6508421000326052, 0.6684045000001788, 0.683372600004077, 0.7005045000696555, 0.7172766000730917, 0.7362823000876233, 0.7502491000341251, 0.770144100068137, 0.7845649999799207, 0.8012005999917164, 0.8174307000590488, 0.8359431000426412, 0.8502405000617728, 0.8683635999914259, 0.8836260000243783, 0.9008734000381082, 0.9198252999922261, 0.9349819000344723, 0.9513006000779569, 0.9676441000774503, 0.9853660999797285, 1.0012779000680894, 1.0164432000601664, 1.0346356000518426, 1.0518757000099868, 1.067647400079295, 1.0844601000426337, 1.1013736000750214, 1.1169588000047952, 1.1341807000571862, 1.1517546999966726, 1.1693312000716105, 1.1836938000051305, 1.2004635999910533, 1.2166502000764012, 1.2354466000106186, 1.2507865000516176, 1.2698516000527889, 1.2840608999831602, 1.30115419998765, 1.3161309000570327, 1.3338139000115916, 1.3511074000271037, 1.3675880000228062]

pilot_20;19;0;0;1;False;1000;True;;8;-69.86044448600505;drag;L;2.4094696;-7.313449;0;-71.77;7.7;1.5674461000598967;1.5675059999339283;1683805271.5708275;1683805271.5851636;1683805272.3395653;1683805272.8404272;1683805273.821554;1683805275.3893497;[0.0, 0.0, 0.0, 0.0, 0.0283467, 0.0283467, 0.0283467, 0.0283467, 0.0283467, 0.0283467, 0.0283467, 0.0283467, 0.0283467, 0.0283467, 0.0283467, 0.0283467, 0.0283467, 0.0283467, 0.0283467, 0.0283467, 0.0283467, 0.0283467, 0.0283467, 0.0283467, 0.0283467, 0.0283467, 0.0283467, 0.0283467, 0.0283467, 0.0283467, 0.0283467, 0.0283467, 0.0283467, 0.0283467, 0.0283467, 0.0283467, 0.0283467, 0.0283467, 0.0283467, 0.0283467, 0.0283467, 0.0283467, 0.0850401, 0.28346702, 0.48189393, 0.65197414, 0.73701423, 0.79370767, 0.85040104, 0.9070944, 0.96378785, 0.9921345, 1.0771747, 1.1338681, 1.2189082, 1.2472548, 1.3606416, 1.417335, 1.4456817, 1.4740285, 1.5307219, 1.5874153, 1.7008021, 1.8425356, 1.8708823, 1.899229, 1.9275757, 1.9559225, 2.0409625, 2.211043, 2.2960827, 2.2960827, 2.3527763, 2.3527763, 2.381123, 2.381123, 2.381123, 2.381123, 2.381123, 2.381123, 2.381123, 2.381123, 2.381123, 2.4094696, 2.4094696, 2.4094696, 2.4094696, 2.4094696, 2.4094696, 2.4094696, 2.4094696, 2.4094696, 2.4094696, 2.4094696];[0.0, 0.0, 0.0, 0.0, 0.0, 0.0, 0.0, 0.0, 0.0, 0.0, 0.0, 0.0, 0.0, 0.0, 0.0, 0.0, 0.0, 0.0, 0.0, 0.0, 0.0, 0.0, 0.0, 0.0, 0.0, 0.0, 0.0, 0.0, 0.0, 0.0, 0.0, 0.0, 0.0, 0.0, 0.0, 0.0, 0.0, 0.0, 0.0, 0.0, 0.0, 0.0, -0.1700802, -0.59528077, -0.93544114, -1.2189082, -1.332295, -1.4456817, -1.5307219, -1.6157619, -1.7291489, -1.8708823, -2.0409625, -2.3527763, -2.5512033, -2.83467, -3.316564, -3.514991, -3.6567245, -3.7417645, -3.9401915, -4.2236586, -4.875633, -5.41422, -5.66934, -5.8394203, -5.9528074, -6.094541, -6.292968, -6.8032084, -6.944942, -7.0583286, -7.086675, -7.143369, -7.1717157, -7.1717157, -7.2000623, -7.2000623, -7.228409, -7.228409, -7.228409, -7.228409, -7.2567554, -7.2567554, -7.285102, -7.285102, -7.285102, -7.285102, -7.313449, -7.313449, -7.313449, -7.313449, -7.313449, -7.313449];[0.0035595999797806144, 0.020829999935813248, 0.03666329989209771, 0.05274169996846467, 0.07122499996330589, 0.08708559989463538, 0.10138759994879365, 0.12099239998497069, 0.13497869996353984, 0.15321659995242953, 0.16997029993217438, 0.1848744999151677, 0.20014919992536306, 0.21923959988635033, 0.23536589997820556, 0.25263819994870573, 0.2693270999006927, 0.28570489992853254, 0.3037347999634221, 0.31966209993697703, 0.335659799980931, 0.3528359999181703, 0.3688140999292955, 0.3868192998925224, 0.4012014999752864, 0.41883189999498427, 0.43693789991084486, 0.45170789991971105, 0.46906129992567, 0.4857542999088764, 0.5012278999201953, 0.519536399981007, 0.5357716999715194, 0.552465199958533, 0.5685111999046057, 0.5869628998916596, 0.6014341999543831, 0.6187509999144822, 0.6342906999634579, 0.6526195999467745, 0.6688248999416828, 0.6855793999275193, 0.700742399902083, 0.7195203999290243, 0.7354742999887094, 0.7523577999090776, 0.7667765999212861, 0.7853838999290019, 0.8012147999834269, 0.8184475998859853, 0.834264799952507, 0.8530651999171823, 0.8675816999748349, 0.8845544999931008, 0.9012956999940798, 0.9176806999603286, 0.9369585999520496, 0.9524819999933243, 0.9683824999956414, 0.9848632999928668, 1.0033216999145225, 1.0183088999474421, 1.0345059999963269, 1.0517342999810353, 1.0677766998996958, 1.0859927999554202, 1.1015614999923855, 1.1181240999139845, 1.1353350999997929, 1.1517336999531835, 1.167533699888736, 1.1866396999685094, 1.2026104999240488, 1.2174673998961225, 1.233404399943538, 1.2520903999684379, 1.2685167999006808, 1.2849106999346986, 1.299882199964486, 1.3187080998905003, 1.3352581999497488, 1.3523382999701425, 1.3689590999856591, 1.386280299979262, 1.4024624999146909, 1.4185126998927444, 1.4343547999160364, 1.4523561999667436, 1.467456299928017, 1.484657899942249, 1.5009389999322593, 1.5178067999659106, 1.5342597999842837, 1.5514557999558747]

pilot_20;0;1;0;1;False;1000;True;;8;132.95917614852908;drag;L;-4.7055526;6.037847;0;127.93;7.65;1.1486783999716863;1.148775800014846;1683805278.4256191;1683805278.433621;1683805279.1887746;1683805279.6889834;1683805280.6721206;1683805281.8203423;[0.0, 0.0, 0.0, 0.0, 0.0, 0.0, 0.0, 0.0, 0.0, 0.0, 0.0, 0.0, 0.0, 0.0, 0.0, 0.0, 0.0, 0.0, 0.0, 0.0, 0.0, 0.0, 0.0, 0.0, 0.0, 0.0, 0.0, 0.0, 0.0, 0.0, 0.0, 0.0, -0.2551203, -0.85040104, -1.0204812, -1.2189082, -1.5307219, -3.0047503, -3.4299507, -3.6567245, -3.798458, -3.8551514, -3.911845, -3.9401915, -3.996885, -4.0535784, -4.1953115, -4.252005, -4.3086987, -4.3937387, -4.422086, -4.5354724, -4.5921655, -4.620512, -4.648859, -4.6772056, -4.6772056, -4.6772056, -4.6772056, -4.6772056, -4.6772056, -4.6772056, -4.6772056, -4.6772056, -4.6772056, -4.6772056, -4.7055526, -4.7055526, -4.7055526];[0.0, 0.0, 0.0, 0.0, 0.0, 0.0, 0.0, 0.0, 0.0, 0.0, 0.0, 0.0, 0.0, 0.0, 0.0, 0.0, 0.0, 0.0, 0.0, 0.0, 0.0, 0.0, 0.0, 0.0, 0.0, 0.0, 0.0, 0.0, 0.0, 0.0, 0.0, 0.0, 0.28346702, 0.93544114, 1.1338681, 1.3039483, 1.7008021, 4.1953115, 4.9039793, 5.2724867, 5.41422, 5.4709134, 5.4992604, 5.527607, 5.5843005, 5.66934, 5.8394203, 5.896114, 5.9528074, 6.037847, 6.0661945, 6.151234, 6.2079277, 6.2362742, 6.2362742, 6.2362742, 6.2362742, 6.2079277, 6.1795807, 6.151234, 6.1228876, 6.094541, 6.0661945, 6.0661945, 6.037847, 6.037847, 6.037847, 6.037847, 6.037847];[0.002940500038675964, 0.017626899993047118, 0.03479800000786781, 0.05114070000126958, 0.06749030004721135, 0.08636369998566806, 0.10137910000048578, 0.1181691000238061, 0.134733899962157, 0.1508591000456363, 0.16646890004631132, 0.1849987000459805, 0.20128120004665107, 0.21808260004036129, 0.23430989996995777, 0.2517566999886185, 0.26868500001728535, 0.28504650003742427, 0.30051229998935014, 0.3202966999961063, 0.3339591999538243, 0.351549300015904, 0.3672122999560088, 0.3847669999813661, 0.4015295000281185, 0.4183291000081226, 0.43459890002850443, 0.45322899997700006, 0.46701390005182475, 0.4846197000006214, 0.49946429999545217, 0.518571599968709, 0.5339121000142768, 0.5525188000174239, 0.5665926999645308, 0.5852534000296146, 0.6002711000619456, 0.6189643000252545, 0.6332092999946326, 0.6516318999929354, 0.6668064000550658, 0.6841629999689758, 0.7011713000247255, 0.7183663999894634, 0.734841600060463, 0.7515556999715045, 0.7683385000564158, 0.7851033000042662, 0.8007934000343084, 0.8213375000050291, 0.8343783000018448, 0.850714800064452, 0.8676647000247613, 0.88412880001124, 0.9007000999990851, 0.9180661999853328, 0.9337316000601277, 0.9511646999744698, 0.9659735000459477, 0.9837462999857962, 1.0009420999558643, 1.0190778999822214, 1.0327261000638828, 1.0504968999885023, 1.0673334000166506, 1.0842209999682382, 1.0994158999528736, 1.1179181999759749, 1.1345536999870092]

pilot_20;1;1;0;1;False;3000;True;;8;-78.97889403187733;drag;L;1.0488279;-7.596916;0;-82.14;7.67;1.4999332999577746;1.5000028999056667;1683805282.577131;1683805282.584142;1683805283.3366742;1683805283.837813;1683805286.8384476;1683805288.338996;[0.0, 0.0, 0.0, 0.0, 0.0, 0.0, 0.0, 0.0, 0.0, 0.0, 0.0, 0.0, 0.0, 0.0, 0.0, 0.0, 0.0, 0.0, 0.0, 0.0, 0.0, 0.0, 0.0, 0.0, 0.0, 0.0, 0.0566934, 0.14173351, 0.2551203, 0.28346702, 0.39685383, 0.48189393, 0.5102406, 0.56693405, 0.59528077, 0.65197414, 0.73701423, 0.79370767, 0.9070944, 0.9921345, 1.0771747, 1.1055214, 1.1338681, 1.1622148, 1.1622148, 1.1905615, 1.1905615, 1.1905615, 1.1905615, 1.1905615, 1.1905615, 1.1905615, 1.1905615, 1.1905615, 1.1905615, 1.1905615, 1.1905615, 1.1905615, 1.1905615, 1.1905615, 1.1905615, 1.1905615, 1.1905615, 1.1905615, 1.1905615, 1.1905615, 1.1622148, 1.1622148, 1.1338681, 1.1338681, 1.1055214, 1.0771747, 1.0771747, 1.0771747, 1.0771747, 1.0771747, 1.0771747, 1.0771747, 1.0771747, 1.0771747, 1.0771747, 1.0488279, 1.0488279, 1.0488279, 1.0488279, 1.0488279, 1.0488279, 1.0488279, 1.0488279, 1.0488279];[0.0, 0.0, 0.0, 0.0, 0.0, 0.0, 0.0, 0.0, 0.0, 0.0, 0.0, 0.0, 0.0, 0.0, 0.0, 0.0, 0.0, 0.0, 0.0, 0.0, 0.0, 0.0, 0.0, 0.0, 0.0, 0.0, -0.65197414, -1.2756016, -2.012616, -2.182696, -2.7779768, -3.1181371, -3.316564, -3.514991, -3.798458, -4.025232, -4.2803516, -4.563819, -5.1591, -5.5559535, -5.896114, -6.0095005, -6.151234, -6.2362742, -6.321315, -6.4630475, -6.6047816, -6.8032084, -7.1150217, -7.7386494, -8.07881, -8.220544, -8.305584, -8.418971, -8.447317, -8.475664, -8.475664, -8.50401, -8.532357, -8.532357, -8.532357, -8.532357, -8.532357, -8.532357, -8.532357, -8.532357, -8.50401, -8.475664, -8.362277, -8.220544, -8.16385, -8.107157, -8.07881, -8.022117, -7.99377, -7.9654226, -7.937076, -7.880383, -7.880383, -7.880383, -7.8520365, -7.7669964, -7.7386494, -7.681956, -7.6536093, -7.6536093, -7.6252627, -7.596916, -7.596916, -7.596916];[0.003758199978619814, 0.016991199925541878, 0.033538299961946905, 0.05075079994276166, 0.06788220000453293, 0.0834743999876082, 0.10226979991421103, 0.11742719996254891, 0.1333279999671504, 0.15057449997402728, 0.16789989999961108, 0.18333189992699772, 0.20052169996779412, 0.21734899992588907, 0.23444639996159822, 0.25052519992459565, 0.2667879000073299, 0.28400159999728203, 0.3011594999115914, 0.31621209997683764, 0.3358278999803588, 0.35002969997003675, 0.36695870000403374, 0.38275200000498444, 0.4013277000049129, 0.41739329998381436, 0.4358440999640152, 0.44923279993236065, 0.4712535999715328, 0.4822277999483049, 0.5014079998945817, 0.5160457999445498, 0.5340920999879017, 0.5497764999745414, 0.5664842999540269, 0.5830090999370441, 0.6013265999499708, 0.6160363999661058, 0.6331775999860838, 0.6507951999083161, 0.6718990999506786, 0.6877800999209285, 0.6997805999126285, 0.7167353999102488, 0.7338805999606848, 0.7524039999116212, 0.7668027000036091, 0.7832818999886513, 0.8001634998945519, 0.8178623999701813, 0.8337408999213949, 0.8505016999552026, 0.8665808999212459, 0.8833421999588609, 0.9012887999415398, 0.9160702999215573, 0.9324602999258786, 0.9500634999712929, 0.9667960999067873, 0.982968800002709, 1.0003854999085888, 1.0164477999787778, 1.034399600001052, 1.0501054999185726, 1.0664736999897286, 1.0829149999190122, 1.1003036999609321, 1.1175167999463156, 1.133085099980235, 1.1499403999187052, 1.1677945998962969, 1.1836733999662101, 1.2004432999528944, 1.2159068000037223, 1.235200099996291, 1.2491427999921143, 1.2674911000067368, 1.282626900007017, 1.3015902999322861, 1.3165158999618143, 1.333309599896893, 1.3484981999499723, 1.366437799995765, 1.3837626999011263, 1.4006030999589711, 1.4174979999661446, 1.4344004999147728, 1.4490081999683753, 1.4667818999150768, 1.4830147000029683]

pilot_20;2;1;0;1;False;3000;True;;8;-25.305024500433507;drag;L;7.596916;-3.6283777;0;-25.53;8.42;1.5817753999726847;1.5818645000690594;1683805289.19163;1683805289.2007732;1683805289.953429;1683805290.4569962;1683805293.454877;1683805295.0368981;[0.0, 0.0, 0.0, 0.0, 0.0, 0.0, 0.0, 0.0, 0.0, 0.0, 0.0, 0.0, 0.0, 0.0, 0.0, 0.0, 0.0, 0.0, 0.0, 0.0, 0.0, 0.0, 0.0, 0.0, 0.0, 0.0, 0.0, 0.0, 0.0, 0.0, 0.0, 0.0, 0.0, 0.0, 0.0, 0.0, 0.0, 0.0, 0.0, 0.0, 0.0, 0.0, 0.0, 0.0, 0.2267736, 0.39685383, 0.53858733, 0.73701423, 0.85040104, 1.0204812, 1.2189082, 1.899229, 2.6929367, 3.316564, 4.1386185, 4.422086, 4.9039793, 5.1024065, 5.1591, 5.215793, 5.300833, 5.300833, 5.3575263, 5.4709134, 5.66934, 5.811074, 5.924461, 6.0095005, 6.094541, 6.2079277, 6.321315, 6.378008, 6.434701, 6.4630475, 6.5197415, 6.6047816, 6.774862, 7.086675, 7.143369, 7.285102, 7.341796, 7.3984895, 7.426836, 7.483529, 7.5118756, 7.540222, 7.540222, 7.5685697, 7.5685697, 7.596916, 7.596916, 7.596916, 7.596916, 7.596916, 7.596916];[0.0, 0.0, 0.0, 0.0, 0.0, 0.0, 0.0, 0.0, 0.0, 0.0, 0.0, 0.0, 0.0, 0.0, 0.0, 0.0, 0.0, 0.0, 0.0, 0.0, 0.0, 0.0, 0.0, 0.0, 0.0, 0.0, 0.0, 0.0, 0.0, 0.0, 0.0, 0.0, 0.0, 0.0, 0.0, 0.0, 0.0, 0.0, 0.0, 0.0, 0.0, 0.0, 0.0, 0.0, -0.0850401, -0.1700802, -0.28346702, -0.39685383, -0.5102406, -0.59528077, -0.7086675, -1.0488279, -1.332295, -1.5590686, -1.7574955, -1.8708823, -2.0693092, -2.1543493, -2.182696, -2.211043, -2.211043, -2.2677362, -2.2960827, -2.381123, -2.5512033, -2.6362433, -2.6929367, -2.7212832, -2.7496302, -2.7779768, -2.83467, -2.83467, -2.8913634, -2.9197102, -2.948057, -3.0330973, -3.1748307, -3.4016042, -3.4299507, -3.514991, -3.5433376, -3.5716846, -3.6000311, -3.6000311, -3.6283777, -3.6283777, -3.6283777, -3.6283777, -3.6283777, -3.6283777, -3.6283777, -3.6283777, -3.6283777, -3.6283777, -3.6283777];[0.005194600089453161, 0.018071600003167987, 0.03420100000221282, 0.0506427000509575, 0.06986440008040518, 0.08322989998850971, 0.10186799999792129, 0.11703480000142008, 0.13486770004965365, 0.1510026000905782, 0.1684990000212565, 0.18381200009025633, 0.2007543999934569, 0.21691620000638068, 0.23523500002920628, 0.2518372000195086, 0.2679228000342846, 0.2843367999885231, 0.30081070004962385, 0.31635280000045896, 0.33444550004787743, 0.3499176000477746, 0.36720370000693947, 0.383980100043118, 0.4012044999981299, 0.4173630999866873, 0.4351758999982849, 0.44981130002997816, 0.4669973000418395, 0.48447530006524175, 0.5009086000500247, 0.5173850000137463, 0.5347050999989733, 0.5505931000225246, 0.5685271000256762, 0.5832065000431612, 0.6003075999906287, 0.6161825000308454, 0.6334515000926331, 0.6496213000500575, 0.6661408999934793, 0.6826782000716776, 0.6995834000408649, 0.716605200082995, 0.7339126000879332, 0.7493442000122741, 0.7678227000869811, 0.786108500091359, 0.8013917000498623, 0.8172210000921041, 0.8345526000484824, 0.8521550000878051, 0.8674636000068858, 0.8836866000201553, 0.9044275000924245, 0.9185355000663549, 0.9336521000368521, 0.9490614000242203, 0.9670456000603735, 0.9832099000923336, 1.0000938000157475, 1.0164774000877514, 1.0336352000012994, 1.0496260999934748, 1.068087900057435, 1.0839829000178725, 1.1002534000435844, 1.1161286000860855, 1.1326128999935463, 1.1497089000185952, 1.169907100033015, 1.1848102000076324, 1.1998053999850526, 1.2196809999877587, 1.2337429000763223, 1.249701700056903, 1.2663163000252098, 1.2870498000411317, 1.3009381000883877, 1.3164828000590205, 1.3328335999976844, 1.349086600006558, 1.367776400060393, 1.382389200036414, 1.401051599998027, 1.4173014999832958, 1.433544100029394, 1.4489586000563577, 1.4665486000012606, 1.483782900031656, 1.4987938000122085, 1.5158180000726134, 1.5341213000938296, 1.548554899985902, 1.5664581999881193]

pilot_20;3;1;0;1;False;1000;True;;8;126.97777167320334;drag;L;-4.4504323;5.8677673;0;127.18;7.36;1.6826182999648154;1.682768400060013;1683805295.8962548;1683805295.8993335;1683805296.6555326;1683805297.1552114;1683805298.1390235;1683805299.8209429;[0.0, 0.0, 0.0, 0.0, 0.0, 0.0, 0.0, 0.0, 0.0, 0.0, 0.0, 0.0, 0.0, 0.0, 0.0, 0.0, 0.0, 0.0, 0.0, 0.0, 0.0, 0.0, 0.0, 0.0, 0.0, 0.0, 0.0, 0.0, 0.0, 0.0, 0.0, 0.0, 0.0, 0.0, -0.76536095, -1.7574955, -2.1543493, -2.381123, -2.4945097, -2.66459, -2.7496302, -2.83467, -2.8913634, -3.0047503, -3.0897903, -3.2031772, -3.316564, -3.5433376, -3.6000311, -3.6283777, -3.6850712, -3.7417645, -3.8268046, -3.968538, -4.2803516, -4.3937387, -4.4504323, -4.5071254, -4.5354724, -4.5921655, -4.648859, -4.7055526, -4.733899, -4.7905927, -4.818939, -4.847286, -4.847286, -4.875633, -4.875633, -4.9039793, -4.9039793, -4.9039793, -4.9039793, -4.9039793, -4.9039793, -4.9039793, -4.9039793, -4.9039793, -4.9039793, -4.875633, -4.875633, -4.7905927, -4.762246, -4.7055526, -4.7055526, -4.648859, -4.620512, -4.5921655, -4.5921655, -4.5921655, -4.563819, -4.5354724, -4.5354724, -4.5354724, -4.5071254, -4.478779, -4.478779, -4.4504323, -4.4504323, -4.4504323, -4.4504323];[0.0, 0.0, 0.0, -0.0283467, -0.0283467, -0.0283467, -0.0283467, -0.0283467, -0.0283467, -0.0283467, -0.0283467, -0.0283467, -0.0283467, -0.0283467, -0.0283467, -0.0283467, -0.0283467, -0.0283467, -0.0283467, -0.0283467, -0.0283467, -0.0283467, -0.0283467, -0.0283467, -0.0283467, -0.0283467, -0.0283467, -0.0283467, -0.0283467, -0.0283467, -0.0283467, -0.0283467, -0.0283467, -0.0283467, 0.65197414, 1.5307219, 1.9559225, 2.1543493, 2.2960827, 2.466163, 2.6078966, 2.6929367, 2.7779768, 2.948057, 3.0897903, 3.2882173, 3.514991, 3.8834982, 4.025232, 4.110272, 4.166965, 4.2236586, 4.337045, 4.5921655, 5.32918, 5.66934, 5.811074, 5.9528074, 6.037847, 6.094541, 6.1228876, 6.151234, 6.1795807, 6.2079277, 6.2079277, 6.2362742, 6.2362742, 6.264621, 6.264621, 6.264621, 6.264621, 6.264621, 6.264621, 6.264621, 6.264621, 6.264621, 6.264621, 6.264621, 6.2362742, 6.2362742, 6.1795807, 6.151234, 6.094541, 6.0661945, 6.037847, 5.981154, 5.981154, 5.981154, 5.9528074, 5.9528074, 5.924461, 5.924461, 5.896114, 5.896114, 5.896114, 5.8677673, 5.8677673, 5.8677673, 5.8677673, 5.8677673, 5.8677673];[0.005059399991296232, 0.017610699986107647, 0.033258600044064224, 0.050769399967975914, 0.06708089995663613, 0.08454329997766763, 0.10061650001443923, 0.11784319998696446, 0.1337331000249833, 0.15162190003320575, 0.1670348000479862, 0.18502560001797974, 0.20152200001757592, 0.21718370006419718, 0.2343231999548152, 0.2507120000664145, 0.2667679999722168, 0.28482369997072965, 0.2998272000113502, 0.3165720000397414, 0.3338962000561878, 0.35110910004004836, 0.3674139999784529, 0.38434039999265224, 0.40039780002553016, 0.4174815999576822, 0.43336200003977865, 0.4497607999946922, 0.46502200001850724, 0.48279629996977746, 0.49875889997929335, 0.516020999988541, 0.5322740999981761, 0.5504557000240311, 0.5671037000138313, 0.5843285999726504, 0.5984903000062332, 0.616503500030376, 0.6326860999688506, 0.6502945000538602, 0.6659568999893963, 0.683871699962765, 0.7002178999828175, 0.7167364000342786, 0.7325570000102744, 0.75053930003196, 0.766027000034228, 0.7840844000456855, 0.7992988000623882, 0.8189906000625342, 0.8321090000681579, 0.8495978000573814, 0.8656995999626815, 0.8848555999575183, 0.9016473999945447, 0.9171055000042543, 0.9322226999793202, 0.9513723000418395, 0.9656384000554681, 0.9844177999766544, 0.9995855999877676, 1.0170263999607414, 1.034197499975562, 1.0504133000504225, 1.0666415999876335, 1.0832266999641433, 1.099615899962373, 1.1199361999752, 1.1330567999975756, 1.1499356999993324, 1.166016999981366, 1.183579400065355, 1.19961760006845, 1.2169311000034213, 1.234426200040616, 1.2514750000555068, 1.2664192999945953, 1.2834071000106633, 1.2991144000552595, 1.3167320999782532, 1.3329558999976143, 1.3503116000210866, 1.3654647000366822, 1.3839661000529304, 1.4004896000260487, 1.4182611999567598, 1.4334528000326827, 1.4502720000455156, 1.4660581999924034, 1.4838270000182092, 1.5008954000659287, 1.5165999999735504, 1.5329737999709323, 1.5507826000684872, 1.5656196000054479, 1.582437500008382, 1.5979604000458494, 1.6176163000054657, 1.6326578999869525, 1.6500010000308976, 1.6665275000268593]

pilot_20;4;1;0;1;False;1000;True;;8;-44.41587535208744;drag;L;4.960673;-5.3575263;0;-47.2;7.3;1.732003099983558;1.7320715999230742;1683805300.741913;1683805300.7499363;1683805301.5055964;1683805302.0064366;1683805302.9874432;1683805304.7195263;[0.0, 0.0, 0.0, 0.0, 0.0, 0.0, 0.0, 0.0, 0.0, 0.0, 0.0, 0.0, 0.0, 0.0, 0.0, 0.0, 0.0, 0.0, 0.0, 0.0, 0.0, 0.0, 0.0, 0.0, 0.0, 0.0, 0.0, 0.0, 0.0, 0.0, 0.0, 0.0, 0.39685383, 0.73701423, 0.87874776, 1.1338681, 1.2756016, 1.3889884, 1.5874153, 1.7574955, 1.9559225, 2.1543493, 2.3527763, 2.5512033, 2.7212832, 2.8063235, 2.8913634, 2.948057, 3.0614438, 3.146484, 3.2598708, 3.514991, 3.798458, 4.2803516, 4.733899, 5.215793, 5.3858733, 5.4992604, 5.5559535, 5.5843005, 5.612647, 5.66934, 5.66934, 5.66934, 5.697687, 5.697687, 5.697687, 5.697687, 5.697687, 5.697687, 5.697687, 5.697687, 5.697687, 5.697687, 5.697687, 5.697687, 5.697687, 5.697687, 5.66934, 5.6409936, 5.612647, 5.612647, 5.5843005, 5.5843005, 5.5843005, 5.5843005, 5.5843005, 5.5559535, 5.5559535, 5.527607, 5.527607, 5.4709134, 5.3858733, 5.2441397, 5.1591, 5.0740595, 5.045713, 5.017366, 4.9890194, 4.9890194, 4.960673, 4.960673, 4.960673, 4.960673];[0.0, 0.0, 0.0, 0.0, 0.0, 0.0, 0.0, 0.0, 0.0, 0.0, 0.0, 0.0, 0.0, 0.0, 0.0, 0.0, 0.0, 0.0, 0.0, 0.0, 0.0, 0.0, 0.0, 0.0, 0.0, 0.0, 0.0, 0.0, 0.0, 0.0, 0.0, 0.0, -0.36850712, -0.6803208, -0.87874776, -1.1622148, -1.3606416, -1.5590686, -1.9275757, -2.2677362, -2.57955, -2.9764037, -3.2598708, -3.514991, -3.770111, -3.8551514, -3.968538, -4.0535784, -4.166965, -4.2803516, -4.365392, -4.478779, -4.620512, -4.818939, -5.045713, -5.300833, -5.41422, -5.4709134, -5.4992604, -5.527607, -5.527607, -5.5559535, -5.5559535, -5.5559535, -5.5559535, -5.5559535, -5.5559535, -5.5559535, -5.5559535, -5.5559535, -5.5559535, -5.5559535, -5.5559535, -5.5559535, -5.5559535, -5.5559535, -5.5559535, -5.5559535, -5.5559535, -5.5559535, -5.5559535, -5.5559535, -5.5559535, -5.5559535, -5.5559535, -5.5559535, -5.5559535, -5.5559535, -5.5559535, -5.5559535, -5.5559535, -5.527607, -5.4709134, -5.4425664, -5.3858733, -5.3858733, -5.3575263, -5.3575263, -5.3575263, -5.3575263, -5.3575263, -5.3575263, -5.3575263, -5.3575263];[0.0043151999125257134, 0.01757619995623827, 0.033536799950525165, 0.051620899932459, 0.06655079999472946, 0.08619049994740635, 0.10206259996630251, 0.1183286999585107, 0.1340260999277234, 0.151570999994874, 0.16758190002292395, 0.1848071999847889, 0.20053879998158664, 0.21868689998518676, 0.23512189998291433, 0.25213839998468757, 0.26925599994137883, 0.2855320000089705, 0.3015382000012323, 0.3186790000181645, 0.33346419990994036, 0.3532147000078112, 0.36741589999292046, 0.3842711999313906, 0.40038130001630634, 0.41856839996762574, 0.4343963999999687, 0.4519933999981731, 0.4678016999969259, 0.48482150002382696, 0.49991679994855076, 0.5181041000178084, 0.5342778000049293, 0.5520463999127969, 0.5668450000230223, 0.5868344999616966, 0.6005273999180645, 0.6176751999882981, 0.637608699966222, 0.6518703999463469, 0.6680914999451488, 0.6841375000076368, 0.7014398999745026, 0.7175541999749839, 0.7344397999113426, 0.7528925000224262, 0.7669183999532834, 0.7854880000231788, 0.8008971000090241, 0.8178016999736428, 0.8348122999304906, 0.8531702000182122, 0.867416699999012, 0.8855526999104768, 0.9017716000089422, 0.919600100023672, 0.9334466999862343, 0.9516970999538898, 0.9690763999242336, 0.9844066000077873, 1.0004836999578401, 1.0176354999421164, 1.034173799911514, 1.0517040999839082, 1.0676572999218479, 1.0842461999272928, 1.1004888999741524, 1.1195566999958828, 1.133931600023061, 1.1512278999434784, 1.1673048000084236, 1.1849854999454692, 1.1994962999597192, 1.2187695999164134, 1.234105399926193, 1.252349799964577, 1.2669308999320492, 1.2839386999839917, 1.2997940999921411, 1.3178137999493629, 1.3330333000048995, 1.3502500000176951, 1.366964399931021, 1.384614699985832, 1.4007259999634698, 1.4199301999760792, 1.4344215999590233, 1.4510022000176832, 1.467760399915278, 1.485191599931568, 1.5002040999243036, 1.5173612999496982, 1.5340617999900132, 1.5523030000040308, 1.5673136999830604, 1.5871515999315307, 1.5997999999672174, 1.6179453999502584, 1.6352911000140011, 1.651427699951455, 1.6685526999644935, 1.6844458999112248, 1.7008143999846652, 1.7181456999387592]

pilot_20;5;1;0;1;False;3000;True;;8;-61.37666806209288;drag;L;4.563819;-6.5764346;0;-55.24;8.0;1.2837717999937013;1.2838511998998001;1683805305.4060771;1683805305.4162502;1683805306.1708605;1683805306.6729834;1683805309.6714706;1683805310.9550626;[0.0, 0.0, 0.0, 0.0, 0.0, 0.0, 0.0, 0.0, 0.0, 0.0, 0.0, 0.0, 0.0, 0.0, 0.0, 0.0, 0.0, 0.0, 0.0, 0.0, 0.0, 0.0, 0.0, 0.0, 0.0, 0.0, 0.1133868, 0.48189393, 0.73701423, 0.87874776, 0.93544114, 0.9921345, 1.1055214, 1.1338681, 1.3606416, 1.4740285, 1.6724553, 1.7574955, 1.8425356, 2.012616, 2.381123, 2.466163, 2.7212832, 2.8913634, 3.0330973, 3.146484, 3.2315238, 3.3449106, 3.514991, 3.6283777, 3.6850712, 3.7417645, 3.7417645, 3.770111, 3.798458, 3.8551514, 4.110272, 4.166965, 4.365392, 4.422086, 4.478779, 4.5071254, 4.5354724, 4.5354724, 4.563819, 4.563819, 4.563819, 4.563819, 4.563819, 4.563819, 4.563819, 4.563819, 4.563819, 4.563819, 4.563819, 4.563819, 4.563819];[0.0, 0.0, 0.0, 0.0, 0.0, 0.0, 0.0, 0.0, 0.0, 0.0, 0.0, 0.0, 0.0, 0.0, 0.0, 0.0, 0.0, 0.0, 0.0, 0.0, 0.0, 0.0, 0.0, 0.0, 0.0, 0.0, -0.19842692, -0.7086675, -1.0488279, -1.2472548, -1.332295, -1.417335, -1.5874153, -1.7291489, -2.0976558, -2.381123, -2.5512033, -2.66459, -2.7779768, -2.948057, -3.316564, -3.4582977, -3.798458, -3.996885, -4.252005, -4.422086, -4.620512, -4.762246, -5.1874466, -5.3858733, -5.527607, -5.612647, -5.66934, -5.7260337, -5.75438, -5.8394203, -6.0661945, -6.151234, -6.321315, -6.378008, -6.4630475, -6.491395, -6.5197415, -6.548088, -6.5764346, -6.5764346, -6.5764346, -6.5764346, -6.5764346, -6.5764346, -6.5764346, -6.5764346, -6.5764346, -6.5764346, -6.5764346, -6.5764346, -6.5764346];[0.004432299989275634, 0.016402499983087182, 0.034476200002245605, 0.05038729996886104, 0.0673194999108091, 0.08283779991324991, 0.1012703999876976, 0.11632709996774793, 0.13407149992417544, 0.1502659999532625, 0.16770049999468029, 0.185630299965851, 0.19999369990546256, 0.21704159991350025, 0.2335303999716416, 0.25075229990761727, 0.26682489993982017, 0.2827824999112636, 0.30057699989993125, 0.31701249990146607, 0.3339539999142289, 0.35039399995002896, 0.36835239990614355, 0.3843929999275133, 0.4010570999234915, 0.4176113000139594, 0.4360191999003291, 0.45092159998603165, 0.4699909999035299, 0.48503089998848736, 0.5010765999322757, 0.5179476999910548, 0.536210099933669, 0.5499887999612838, 0.567276099929586, 0.5855642999522388, 0.6028017000062391, 0.617542399908416, 0.634775499929674, 0.6511147000128403, 0.6700960999587551, 0.683107899967581, 0.7015331999864429, 0.717780299950391, 0.7371634999290109, 0.7520592999644578, 0.7670907999854535, 0.785188699956052, 0.8039309999439865, 0.8176839000079781, 0.83399690000806, 0.85141429991927, 0.8682917999103665, 0.8835603999905288, 0.9003403999377042, 0.9168880999786779, 0.9367298999568447, 0.9496541999978945, 0.9692800999619067, 0.9846427999436855, 1.003058800008148, 1.0190108999377117, 1.0353354999097064, 1.0515990999992937, 1.0692658999469131, 1.0843386999331415, 1.1010356999468058, 1.1178922000108287, 1.1340540999080986, 1.1501904999604449, 1.1667841000016779, 1.1841450999490917, 1.2013324999716133, 1.2173135000048205, 1.2345003999071196, 1.2512629999546334, 1.2687884999904782]

pilot_20;6;1;0;1;False;1000;True;;8;-165.4827054956798;drag;L;-5.75438;-1.984269;0;-160.97;6.09;1.2152299999725074;1.2153132000239566;1683805311.692412;1683805311.698721;1683805312.4542215;1683805312.9560015;1683805313.9364502;1683805315.1520905;[0.0, 0.0, 0.0, 0.0, 0.0, 0.0, 0.0, 0.0, 0.0, 0.0, 0.0, 0.0, 0.0, 0.0, 0.0, 0.0, 0.0, 0.0, 0.0, 0.0, 0.0, 0.0, 0.0, 0.0, 0.0, 0.0, 0.0, 0.0, 0.0, 0.0, 0.0, 0.0, 0.0, -0.8220543, -1.7858423, -2.4945097, -3.2031772, -4.648859, -5.782727, -6.491395, -6.888248, -7.0016356, -7.0583286, -7.086675, -7.1150217, -7.1150217, -7.1150217, -7.1150217, -7.1150217, -7.1150217, -7.1150217, -7.1150217, -7.1150217, -7.1150217, -7.086675, -7.086675, -7.0583286, -6.944942, -6.774862, -6.5197415, -6.151234, -6.037847, -5.981154, -5.924461, -5.896114, -5.8394203, -5.8394203, -5.8394203, -5.811074, -5.811074, -5.782727, -5.782727, -5.75438];[0.0, 0.0, 0.0, 0.0, 0.0, 0.0, 0.0, 0.0, 0.0, 0.0, 0.0, 0.0, 0.0, 0.0, 0.0, 0.0, 0.0, 0.0, 0.0, 0.0, 0.0, 0.0, 0.0, 0.0, 0.0, 0.0, 0.0, 0.0, 0.0, 0.0, 0.0, 0.0, 0.0, -0.42520052, -0.93544114, -1.3039483, -1.6157619, -1.899229, -1.9559225, -1.9559225, -1.984269, -1.984269, -1.984269, -1.984269, -1.984269, -1.984269, -1.984269, -1.984269, -1.984269, -1.984269, -1.984269, -1.984269, -1.984269, -1.984269, -1.984269, -1.984269, -1.984269, -1.984269, -1.984269, -1.984269, -1.984269, -1.984269, -1.984269, -1.984269, -1.984269, -1.984269, -1.984269, -1.984269, -1.984269, -1.984269, -1.984269, -1.984269, -1.984269];[0.00417820003349334, 0.020637899986468256, 0.03401639999356121, 0.05425679998006672, 0.06822869996540248, 0.08591180003713816, 0.10250090004410595, 0.11825759999919683, 0.1352473000297323, 0.1538357000099495, 0.16808029997628182, 0.18506789999082685, 0.20202460000291467, 0.2182158000068739, 0.23549670004285872, 0.25218349997885525, 0.2689531999640167, 0.2870185000356287, 0.30109960003755987, 0.3182571999495849, 0.33393329998943955, 0.35068150004372, 0.3670527000213042, 0.3851360999979079, 0.40058620006311685, 0.4182964999927208, 0.43383300001733005, 0.45163340005092323, 0.46758329996373504, 0.4857661999994889, 0.500770500046201, 0.5191982999676839, 0.5344077000627294, 0.5519999000243843, 0.5683969999663532, 0.5856905999826267, 0.6032440999988467, 0.6194035999942571, 0.6341142000164837, 0.6542688000481576, 0.667872600024566, 0.6855065999552608, 0.7020184999564663, 0.7185580000514165, 0.7367670000530779, 0.7527447000611573, 0.7686604000627995, 0.7847727000480518, 0.8012936000013724, 0.8191151999635622, 0.83459009998478, 0.8522756999591365, 0.8674150999868289, 0.8853095000376925, 0.9012807999970391, 0.9178483999567106, 0.9333085999824107, 0.951950200018473, 0.9673627000302076, 0.9858407999854535, 1.001813199953176, 1.0175223000114784, 1.0352103000041097, 1.0516110999742523, 1.06856779998634, 1.0859573000343516, 1.0996793999802321, 1.1185202000197023, 1.1346593999769539, 1.1515289000235498, 1.1675643000053242, 1.1851122999796644, 1.2019045000197366]

