subj;trial;block;prior;kappa;ct;delay;fix;keypressed;R;T_Angle;resp_mod;choice_x;choice_y;init_resp_angle;choiceAngle;choiceR;RT;MT;ts_b;ts_f;ts_p;ts_d;ts_r;ts_e;m_pos_x;m_pos_y;m_clock
testtrial;0;0;0;1;False;3000;False;;8;-28.666195624952522;drag;L;nan;nan;0;nan;nan;0.003806399996392429;0.003887199913151562;1684225696.4401593;1684225696.4510918;1684225697.1882849;1684225697.1882849;1684225697.1882849;1684225697.1922903;[];[];[]
testtrial;0;0;0;1;False;3000;True;;8;7.180832937362993;drag;L;7.483529;-0.2551203;0;-1.95;7.49;1.731959900003858;1.7320623999694362;1684225697.8035352;1684225697.817603;1684225698.5739548;1684225699.0731933;1684225702.073976;1684225703.8057983;[0.0, 0.0, 0.0, 0.0, 0.0, 0.0, 0.0, 0.0, 0.0, 0.0, 0.0, 0.0, 0.0, 0.0, 0.0, 0.0, 0.0, 0.0, 0.0, 0.0, 0.0, 0.0, 0.0, 0.0, 0.0, 0.0, 0.0, 0.0, 0.0, 0.0, 0.0, 0.0, 0.0, 0.0, 0.0, 0.0, 0.0, 0.0, 0.0, 0.0, 0.0, 0.0, 0.0, 0.0, 0.0, 0.0, 0.0, 0.0, 0.0, 0.9921345, 3.0330973, 3.996885, 5.017366, 5.4709134, 5.8677673, 6.1228876, 6.321315, 6.5764346, 6.831555, 6.9165955, 7.029982, 7.2000623, 7.4551826, 7.7386494, 7.99377, 8.050464, 8.16385, 8.192197, 8.192197, 8.192197, 8.192197, 8.192197, 8.192197, 8.192197, 8.16385, 8.135503, 8.135503, 8.135503, 8.135503, 8.135503, 8.107157, 8.107157, 8.07881, 8.022117, 7.99377, 7.8520365, 7.710303, 7.596916, 7.5685697, 7.5118756, 7.5118756, 7.483529, 7.483529, 7.483529, 7.483529, 7.483529, 7.483529, 7.483529, 7.483529, 7.483529, 7.483529, 7.483529, 7.483529, 7.483529];[0.0, 0.0, 0.0, 0.0, 0.0, 0.0, 0.0, 0.0, 0.0, 0.0, 0.0, 0.0, 0.0, 0.0, 0.0, 0.0, 0.0, 0.0, 0.0, 0.0, 0.0, 0.0, 0.0, 0.0, 0.0, 0.0, 0.0, 0.0, 0.0, 0.0, 0.0, 0.0, 0.0, 0.0, 0.0, 0.0, 0.0, 0.0, 0.0, 0.0, 0.0, 0.0, 0.0, 0.0, 0.0, 0.0, 0.0, 0.0, 0.0, 0.3401604, 0.56693405, 0.5102406, 0.39685383, 0.36850712, 0.36850712, 0.3401604, 0.3118137, 0.2551203, 0.1700802, 0.1700802, 0.14173351, 0.14173351, 0.14173351, 0.14173351, 0.0850401, 0.0566934, 0.0283467, 0.0, 0.0, 0.0, 0.0, 0.0, 0.0, 0.0, 0.0, 0.0, 0.0, 0.0, 0.0, -0.0283467, -0.0566934, -0.0566934, -0.0566934, -0.0850401, -0.0850401, -0.14173351, -0.1700802, -0.2267736, -0.2267736, -0.2551203, -0.2551203, -0.2551203, -0.2551203, -0.2551203, -0.2551203, -0.2551203, -0.2551203, -0.2551203, -0.2551203, -0.2551203, -0.2551203, -0.2551203, -0.2551203, -0.2551203];[0.005179499974474311, 0.016253999900072813, 0.03466179990209639, 0.04975229990668595, 0.06774009997025132, 0.08288140001241118, 0.1010953999357298, 0.11806239990983158, 0.1348295999923721, 0.14863539999350905, 0.16792319994419813, 0.1824054999742657, 0.20124640001449734, 0.21715699997730553, 0.23454709991347045, 0.25012370001059026, 0.26717919996008277, 0.2831300999969244, 0.3006182999815792, 0.31679670000448823, 0.3342482999432832, 0.3504162000026554, 0.3679352999897674, 0.3845797999529168, 0.40187760000117123, 0.4179321000119671, 0.43503940000664443, 0.44911059993319213, 0.4670880999183282, 0.482386099989526, 0.5007260999409482, 0.5155593999661505, 0.5350650999462232, 0.5506850999081507, 0.5684195999056101, 0.5848375000059605, 0.601274799904786, 0.6179346999851987, 0.6347959999693558, 0.6499334999825805, 0.6680378000019118, 0.6834146999754012, 0.7008937000064179, 0.716272099991329, 0.7340201999759302, 0.7495399999897927, 0.7685886999825016, 0.7828905999194831, 0.7994853999698535, 0.8160905999829993, 0.8320966999744996, 0.8499444999033585, 0.8670400999253616, 0.8826997999567538, 0.9018365999218076, 0.9165958999656141, 0.933230199967511, 0.9493241999298334, 0.9669413999654353, 0.983121500001289, 1.001094099949114, 1.016064399969764, 1.0354818999767303, 1.0490611999994144, 1.0662848999490961, 1.0830094999400899, 1.1005931999534369, 1.1165557999629527, 1.134755800012499, 1.14963150001131, 1.1669262999203056, 1.1817827000049874, 1.200333199929446, 1.2155683999881148, 1.2322291999589652, 1.2483282999601215, 1.2671467999462038, 1.2833184999180958, 1.2998608999187127, 1.3163021999644116, 1.3332016000058502, 1.3494811999844387, 1.3655720999231562, 1.3822448999853805, 1.4006332999560982, 1.4158567999256775, 1.4337158999405801, 1.4502971000038087, 1.4660195999313146, 1.48471150000114, 1.4987332999007776, 1.5156560000032187, 1.5334121999330819, 1.5480119999265298, 1.567123799934052, 1.5825279999990016, 1.6006306000053883, 1.6167001000139862, 1.6354468999197707, 1.6508854000130668, 1.6665051999734715, 1.6832325999857858, 1.7010485999053344, 1.7156863999553025]
testtrial;1;0;0;1;False;1000;True;;8;62.340960388715146;drag;L;3.316564;6.1795807;0;61.78;7.01;1.983245800016448;1.983324500033632;1684225704.6645036;1684225704.6846354;1684225705.4377284;1684225705.9414065;1684225706.9204624;1684225708.9040604;[0.0, 0.0, 0.0, 0.0, 0.0, 0.0, 0.0, 0.0, 0.0, 0.0, 0.0, 0.0, 0.0, 0.0, 0.0, 0.0, 0.0, 0.0, 0.0, 0.0, 0.0, 0.0, 0.0, 0.0, 0.0, 0.0, 0.0, 0.0, 0.0, 0.0, 0.0, 0.0, 0.0, 0.0, 0.0, 0.0, 0.0, 0.0, 0.0, 0.0, 0.0, 0.0, 0.0, 0.0, 0.0, 0.0, 0.0, 0.0, 0.0, 0.0, 0.0, 0.0, 0.0, 0.0, 0.0, 0.0, 0.0, 0.0, 0.0, 0.0, 0.0, 0.0, 0.0, 0.0566934, 0.0850401, 0.0850401, 0.1133868, 0.19842692, 0.5102406, 0.76536095, 0.9070944, 1.0204812, 1.1905615, 1.417335, 1.5874153, 1.7858423, 2.012616, 2.3527763, 2.7779768, 2.8630168, 2.948057, 3.0047503, 3.0047503, 3.0047503, 3.0330973, 3.0330973, 3.0330973, 3.0614438, 3.0614438, 3.1181371, 3.146484, 3.1748307, 3.2031772, 3.2315238, 3.2598708, 3.2598708, 3.2882173, 3.316564, 3.316564, 3.316564, 3.316564, 3.316564, 3.316564, 3.316564, 3.316564, 3.316564, 3.316564, 3.316564, 3.316564, 3.316564, 3.316564, 3.316564, 3.316564, 3.316564, 3.316564, 3.316564, 3.316564, 3.316564, 3.316564];[0.0, 0.0, 0.0, 0.0, 0.0, 0.0, 0.0, 0.0, 0.0, 0.0, 0.0, 0.0, 0.0, 0.0, 0.0, 0.0, 0.0, 0.0, 0.0, 0.0, 0.0, 0.0, 0.0, 0.0, 0.0, 0.0, 0.0, 0.0, 0.0, 0.0, 0.0, 0.0, 0.0, 0.0, 0.0, 0.0, 0.0, 0.0, 0.0, 0.0, 0.0, 0.0, 0.0, 0.0, 0.0, 0.0, 0.0, 0.0, 0.0, 0.0, 0.0, 0.0, 0.0, 0.0, 0.0, 0.0, 0.0, 0.0, 0.0, 0.0, 0.0, 0.0, 0.0, 0.0850401, 0.14173351, 0.1700802, 0.2267736, 0.59528077, 1.5874153, 2.0976558, 2.3527763, 2.5228565, 2.7212832, 3.0897903, 3.3732576, 3.911845, 4.5071254, 5.4425664, 6.774862, 7.029982, 7.1717157, 7.2567554, 7.285102, 7.313449, 7.313449, 7.313449, 7.313449, 7.3701425, 7.3701425, 7.3701425, 7.3701425, 7.3701425, 7.3701425, 7.341796, 7.2567554, 7.143369, 7.0583286, 6.888248, 6.7465153, 6.5197415, 6.434701, 6.3496614, 6.292968, 6.264621, 6.2362742, 6.2079277, 6.2079277, 6.1795807, 6.1795807, 6.1795807, 6.1795807, 6.1795807, 6.1795807, 6.1795807, 6.1795807, 6.1795807, 6.1795807, 6.1795807, 6.1795807];[0.003785699955187738, 0.01935720001347363, 0.03492739994544536, 0.05242039996664971, 0.06832179997581989, 0.08571200002916157, 0.10153620003256947, 0.11841180000919849, 0.13678749999962747, 0.15249300003051758, 0.16840820002835244, 0.18795429996680468, 0.20149829995352775, 0.21866519993636757, 0.23487499996554106, 0.25219849997665733, 0.26825630001258105, 0.28495749994181097, 0.301171200000681, 0.31920190004166216, 0.3355550999986008, 0.35249059996567667, 0.368049000040628, 0.38561410002876073, 0.4018094999482855, 0.41885929997079074, 0.4351154000032693, 0.45237910002470016, 0.4683326999656856, 0.4855189999798313, 0.5017271999968216, 0.5196236999472603, 0.5349912999663502, 0.552227700012736, 0.5683478999417275, 0.5859656999818981, 0.6015749999787658, 0.6193712999811396, 0.6350746999960393, 0.6523624999681488, 0.6685922000324354, 0.6858197000110522, 0.7016466000350192, 0.7187585999490693, 0.7351931999437511, 0.7525240000104532, 0.7684019999578595, 0.7857692999532446, 0.8030171999707818, 0.8186525999335572, 0.8347104999702424, 0.85253539995756, 0.8686264000134543, 0.885503500001505, 0.9020154000027105, 0.9191263000248, 0.9351543999509886, 0.9525707999709994, 0.9680551999481395, 0.9851615999359637, 1.0011659000301734, 1.0184892000397667, 1.0346429999917746, 1.0528632999630645, 1.069121600012295, 1.0850143999559805, 1.1020498999860138, 1.1184100999962538, 1.1338858000235632, 1.1524749000091106, 1.167697999975644, 1.184543599956669, 1.20163629995659, 1.2182686999440193, 1.2371869999915361, 1.2516581999370828, 1.2673114000353962, 1.2864293999737129, 1.3013620999408886, 1.3194157000398263, 1.3350967000005767, 1.3516653999686241, 1.3686751000350341, 1.3851284999400377, 1.4015760000329465, 1.4199485999997705, 1.4336541999364272, 1.451141000026837, 1.4670856000157073, 1.4850792000070214, 1.5022161999950185, 1.5185259999707341, 1.5343679999932647, 1.5521749999606982, 1.5677968999370933, 1.5847534999484196, 1.6005838999990374, 1.6185024000005797, 1.635672300006263, 1.653141799964942, 1.6680560000240803, 1.6848596000345424, 1.7011581000406295, 1.717716999934055, 1.734805400017649, 1.7525417000288144, 1.769110900000669, 1.7850870999973267, 1.8015561000211164, 1.818814400001429, 1.834707499947399, 1.8521041999338195, 1.8674232999328524, 1.8856147000333294, 1.9026098999893293, 1.9191657999763265, 1.9343581999419257, 1.9526980000082403, 1.9677942999405786]
testtrial;2;0;0;1;False;1000;True;;8;-140.14295517378238;drag;L;-5.924461;-5.1874466;0;-138.79;7.87;1.3832417000085115;1.3833088000537828;1684225709.611478;1684225709.617319;1684225710.3713653;1684225710.8725774;1684225711.8540998;1684225713.2373588;[0.0, 0.0, 0.0, 0.0, 0.0, 0.0, 0.0, 0.0, 0.0, 0.0, 0.0, 0.0, 0.0, 0.0, 0.0, 0.0, 0.0, 0.0, 0.0, 0.0, 0.0, 0.0, 0.0, 0.0, 0.0, 0.0, 0.0, 0.0, 0.0, -0.56693405, -0.87874776, -1.1905615, -1.4740285, -2.182696, -2.66459, -2.9764037, -3.2031772, -3.5716846, -3.8268046, -4.3086987, -4.6772056, -4.9890194, -5.1024065, -5.130753, -5.1874466, -5.2724867, -5.300833, -5.32918, -5.3575263, -5.3858733, -5.4709134, -5.5843005, -5.782727, -5.924461, -5.981154, -6.0095005, -6.037847, -6.0661945, -6.0661945, -6.0661945, -6.0661945, -6.0661945, -6.0661945, -6.037847, -6.037847, -6.0095005, -6.0095005, -5.981154, -5.981154, -5.924461, -5.924461, -5.924461, -5.924461, -5.924461, -5.924461, -5.924461, -5.924461, -5.924461, -5.924461, -5.924461, -5.924461, -5.924461, -5.924461];[0.0, 0.0, 0.0, 0.0, 0.0, 0.0, 0.0, 0.0, 0.0, 0.0, 0.0, 0.0, 0.0, 0.0, 0.0, 0.0, 0.0, 0.0, 0.0, 0.0, 0.0, 0.0, 0.0, 0.0, 0.0, 0.0, 0.0, 0.0, 0.0, -0.6236274, -0.87874776, -1.0771747, -1.2472548, -1.6724553, -1.9275757, -2.0976558, -2.211043, -2.4378164, -2.6078966, -3.0897903, -3.3732576, -3.6567245, -3.7417645, -3.798458, -3.8268046, -3.8834982, -3.911845, -3.968538, -4.025232, -4.0535784, -4.1953115, -4.3937387, -4.7055526, -4.9039793, -4.960673, -5.045713, -5.0740595, -5.0740595, -5.1024065, -5.1024065, -5.1024065, -5.1024065, -5.1024065, -5.130753, -5.130753, -5.1591, -5.1591, -5.1591, -5.1874466, -5.1874466, -5.1874466, -5.1874466, -5.1874466, -5.1874466, -5.1874466, -5.1874466, -5.1874466, -5.1874466, -5.1874466, -5.1874466, -5.1874466, -5.1874466, -5.1874466];[0.004333000048063695, 0.019332600058987737, 0.03445450006984174, 0.05238110001664609, 0.0680041000014171, 0.08558700000867248, 0.10197279998101294, 0.11911640001926571, 0.13531050004530698, 0.15252300002612174, 0.16883009998127818, 0.18537449999712408, 0.20371210004668683, 0.21873930003494024, 0.23543420003261417, 0.25256340007763356, 0.26862480002455413, 0.2856907000532374, 0.30213650001678616, 0.3189655999885872, 0.3355466000502929, 0.35210470005404204, 0.3690578000387177, 0.3851284000556916, 0.40139200002886355, 0.42013550002593547, 0.4342612000182271, 0.452553000068292, 0.4679800000740215, 0.4846862000413239, 0.5017013000324368, 0.5184537000022829, 0.5350455000298098, 0.5530861000297591, 0.5677968000527471, 0.585976800066419, 0.6018948000855744, 0.6183822000166401, 0.6365306000225246, 0.6519394000060856, 0.6677259000716731, 0.6865194999845698, 0.7011808999814093, 0.7198592000640929, 0.7355319000780582, 0.7514126000460237, 0.7685249000787735, 0.7855398000683635, 0.8008310999721289, 0.817766800057143, 0.8340490000555292, 0.8525309000397101, 0.8682273000013083, 0.8847578000277281, 0.9019451000494882, 0.9184893000638112, 0.933779300074093, 0.9529635000508279, 0.96813260007184, 0.9861970000201836, 1.0022498000180349, 1.018174699973315, 1.0355489000212401, 1.05151040002238, 1.067462500068359, 1.0858119999757037, 1.103829100029543, 1.1196519000222906, 1.13504780002404, 1.1516251000575721, 1.1689706000033766, 1.1843548000324517, 1.2010696000652388, 1.2200119000626728, 1.2344594000605866, 1.251778900041245, 1.2681278000818565, 1.285826800041832, 1.3024760000407696, 1.3177381000714377, 1.3347642000298947, 1.352374600013718, 1.3668884000508115]
testtrial;3;0;0;1;False;3000;True;;8;3.7231624059649633;drag;L;8.7591305;0.6236274;0;4.07;8.78;1.1983776999404654;1.198481100029312;1684225714.0568554;1684225714.0682025;1684225714.8200524;1684225715.3211715;1684225718.3228688;1684225719.5210204;[0.0, 0.0, 0.0, 0.0, 0.0, 0.0, 0.0, 0.0, 0.0, 0.0, 0.0, 0.0, 0.0, 0.0, 0.0, 0.0, 0.0, 0.0, 0.0, 0.0, 0.0, 0.0, 0.0, 0.0, 0.0, 0.0, 2.3244295, 4.337045, 6.151234, 7.086675, 7.795343, 8.277237, 8.58905, 8.702437, 8.730784, 8.7874775, 8.7874775, 8.815824, 8.815824, 8.844172, 8.844172, 8.872518, 8.900865, 8.929211, 8.929211, 8.957558, 8.957558, 8.985904, 8.985904, 8.985904, 8.985904, 8.957558, 8.929211, 8.900865, 8.872518, 8.844172, 8.844172, 8.815824, 8.815824, 8.7874775, 8.7591305, 8.7591305, 8.7591305, 8.7591305, 8.7591305, 8.7591305, 8.7591305, 8.7591305, 8.7591305, 8.7591305, 8.7591305, 8.7591305];[0.0, 0.0, 0.0, 0.0, 0.0, 0.0, 0.0, 0.0, 0.0, 0.0, 0.0, 0.0, 0.0, 0.0, 0.0, 0.0, 0.0, 0.0, 0.0, 0.0, 0.0, 0.0, 0.0, 0.0, 0.0, 0.0, 0.14173351, 0.1700802, 0.2551203, 0.36850712, 0.5102406, 0.6236274, 0.73701423, 0.76536095, 0.85040104, 0.87874776, 0.87874776, 0.93544114, 0.96378785, 0.96378785, 0.9921345, 0.9921345, 1.0204812, 1.0204812, 1.0204812, 1.0204812, 1.0204812, 1.0204812, 0.9921345, 0.93544114, 0.87874776, 0.85040104, 0.79370767, 0.76536095, 0.73701423, 0.7086675, 0.6803208, 0.6803208, 0.65197414, 0.6236274, 0.6236274, 0.6236274, 0.6236274, 0.6236274, 0.6236274, 0.6236274, 0.6236274, 0.6236274, 0.6236274, 0.6236274, 0.6236274, 0.6236274];[0.004599899984896183, 0.017441099975258112, 0.03592150006443262, 0.051083800033666193, 0.06808450003154576, 0.08386799995787442, 0.1012350000673905, 0.11770719999913126, 0.13423750002402812, 0.15145500004291534, 0.16928739997092634, 0.1829126999946311, 0.19929290004074574, 0.21574929996859282, 0.2351199999684468, 0.25033209996763617, 0.26756519998889416, 0.2837878999998793, 0.30211150005925447, 0.3155383999692276, 0.33377879997715354, 0.349538299953565, 0.36769860005006194, 0.38329070003237575, 0.400257800007239, 0.4175353000173345, 0.4335422000149265, 0.44905409996863455, 0.4685651999898255, 0.4829894000431523, 0.5012468000641093, 0.5167030000593513, 0.5334850000217557, 0.5497542000375688, 0.5664400999667123, 0.5826971000060439, 0.6004416999639943, 0.6158272000029683, 0.6348700999515131, 0.6485280999913812, 0.6660652999999002, 0.6826581000350416, 0.701098500052467, 0.7163141999626532, 0.7348304999759421, 0.7492147999582812, 0.7670607999898493, 0.7838932999875396, 0.7992715999716893, 0.8174040999729186, 0.8341521000256762, 0.8491423999657854, 0.8678183000301942, 0.883449099957943, 0.9003378000343218, 0.9165968999732286, 0.9329925000201911, 0.9497040000278503, 0.9653363999677822, 0.9820187999866903, 1.0018127000657842, 1.0163218000670895, 1.0333748999983072, 1.0495775999734178, 1.0671359000261873, 1.084273900021799, 1.1011042000027373, 1.1159365000203252, 1.1348796000238508, 1.151060999953188, 1.1670168000273407, 1.183838100056164]
testtrial;4;0;0;1;False;1000;True;;8;-82.3675402397352;drag;L;1.1622148;-7.0583286;0;-80.65;7.15;1.567323499941267;1.567361900000833;1684225720.388573;1684225720.4008758;1684225721.1545022;1684225721.6566172;1684225722.6353388;1684225724.2032485;[0.0, 0.0, 0.0, 0.0, 0.0, 0.0, 0.0, 0.0, 0.0, 0.0, 0.0, 0.0, 0.0, 0.0, 0.0, 0.0, 0.0, 0.0, 0.0, 0.0, 0.0, 0.0, 0.0, 0.0, 0.0, 0.0, 0.0, 0.0, 0.0, 0.0, 0.0, 0.0, 0.0, 0.0, 0.0, 0.0, 0.1133868, 0.3118137, 0.42520052, 0.5102406, 0.6803208, 0.7086675, 0.7086675, 0.76536095, 0.76536095, 0.79370767, 0.79370767, 0.79370767, 0.79370767, 0.79370767, 0.79370767, 0.79370767, 0.79370767, 0.79370767, 0.79370767, 0.79370767, 0.79370767, 0.79370767, 0.79370767, 0.8220543, 0.85040104, 0.85040104, 0.85040104, 0.85040104, 0.85040104, 0.85040104, 0.85040104, 0.85040104, 0.85040104, 0.85040104, 0.85040104, 0.85040104, 0.85040104, 0.87874776, 0.87874776, 0.96378785, 0.9921345, 1.0488279, 1.0771747, 1.1055214, 1.1338681, 1.1622148, 1.1622148, 1.1622148, 1.1622148, 1.1622148, 1.1622148, 1.1622148, 1.1622148, 1.1622148, 1.1622148, 1.1622148, 1.1622148, 1.1622148];[0.0, 0.0, 0.0, 0.0, 0.0, 0.0, 0.0, 0.0, 0.0, 0.0, 0.0, 0.0, 0.0, 0.0, 0.0, 0.0, 0.0, 0.0, 0.0, 0.0, 0.0, 0.0, 0.0, 0.0, 0.0, 0.0, 0.0, 0.0, 0.0, 0.0, 0.0, 0.0, 0.0, 0.0, 0.0, 0.0, -0.9921345, -1.984269, -2.4945097, -3.0614438, -3.798458, -4.081925, -4.3086987, -4.648859, -4.818939, -5.017366, -5.1024065, -5.1591, -5.2441397, -5.2724867, -5.32918, -5.3858733, -5.41422, -5.4709134, -5.5843005, -5.697687, -5.8677673, -6.094541, -6.292968, -6.633128, -6.831555, -6.9732885, -7.143369, -7.1717157, -7.228409, -7.2567554, -7.285102, -7.313449, -7.313449, -7.313449, -7.313449, -7.313449, -7.313449, -7.313449, -7.285102, -7.2567554, -7.228409, -7.1717157, -7.1717157, -7.143369, -7.1150217, -7.086675, -7.086675, -7.0583286, -7.0583286, -7.0583286, -7.0583286, -7.0583286, -7.0583286, -7.0583286, -7.0583286, -7.0583286, -7.0583286, -7.0583286];[0.003385899937711656, 0.01930379995610565, 0.034648300032131374, 0.052606499986723065, 0.06814300001133233, 0.08574080001562834, 0.10203840001486242, 0.11949289997573942, 0.13536069996189326, 0.15225689997896552, 0.16864469996653497, 0.185744300018996, 0.20170079998206347, 0.21871489996556193, 0.23466740001458675, 0.25166920002084225, 0.2687710999744013, 0.28680439991876483, 0.30228830000851303, 0.31853289995342493, 0.3342205999651924, 0.3515703999437392, 0.36858270002994686, 0.38659479992929846, 0.40193679998628795, 0.41900200000964105, 0.436350499978289, 0.4545151999918744, 0.47070970002096146, 0.4873476999346167, 0.5032251999946311, 0.5202840999700129, 0.5367948999628425, 0.5542024000314996, 0.5716346999397501, 0.5883596999337897, 0.6039437999716029, 0.6223894000286236, 0.6356866999994963, 0.6549626999767497, 0.6701106999535114, 0.687306199921295, 0.7027986999601126, 0.7198656999971718, 0.7371911000227556, 0.754645699984394, 0.7700190999312326, 0.7868378999410197, 0.8037075999891385, 0.8207540999865159, 0.8364876999985427, 0.8545321000274271, 0.8701914999401197, 0.8877055000048131, 0.9029851999366656, 0.9198950999416411, 0.9371444999706, 0.9539934999775141, 0.9706516999285668, 0.9876134999794886, 1.0026284999912605, 1.0216740999603644, 1.0379910999909043, 1.0536290999734774, 1.073970300029032, 1.0871852999553084, 1.103865799959749, 1.1202963999239728, 1.1359206000342965, 1.1552583000157028, 1.170289000030607, 1.1886062999255955, 1.2029102999949828, 1.2205657999729738, 1.23679929994978, 1.2545275000156835, 1.2692772999871522, 1.2893622999545187, 1.302223899983801, 1.3207307999255136, 1.3357865000143647, 1.3539710999466479, 1.3710240999935195, 1.388013600022532, 1.4016008999897167, 1.4206492999801412, 1.4366522999480367, 1.4538296000100672, 1.4701084999833256, 1.4868248000275344, 1.5009502000175416, 1.518566899932921, 1.5363207999616861, 1.553465100005269]
testtrial;5;0;0;1;False;3000;True;;8;-52.793974279903686;drag;L;4.337045;-6.037847;0;-54.31;7.43;1.4662617000285536;1.4663814000086859;1684225725.0560465;1684225725.0674815;1684225725.822492;1684225726.3230965;1684225729.322805;1684225730.7891867;[0.0, 0.0, 0.0, 0.0, 0.0, 0.0, 0.0, 0.0, 0.0, 0.0, 0.0, 0.0, 0.0, 0.0, 0.0, 0.0, 0.0, 0.0, 0.0, 0.0, 0.0, 0.0, 0.0, 0.0, 0.0, 0.0, 0.0, 0.0, 0.0, 0.0, 0.0, 0.0, 0.0, 0.0, 0.0, 0.0, 0.0, 1.3039483, 2.83467, 3.3732576, 3.7417645, 3.8551514, 3.911845, 3.9401915, 3.968538, 3.968538, 3.968538, 3.968538, 3.9401915, 3.9401915, 3.9401915, 3.9401915, 3.9401915, 3.9401915, 3.9401915, 3.9401915, 3.9401915, 3.9401915, 3.9401915, 3.9401915, 3.9401915, 3.9401915, 3.9401915, 3.9401915, 3.9401915, 3.9401915, 3.968538, 3.996885, 4.025232, 4.0535784, 4.110272, 4.1386185, 4.166965, 4.2236586, 4.252005, 4.2803516, 4.3086987, 4.337045, 4.337045, 4.337045, 4.337045, 4.337045, 4.337045, 4.337045, 4.337045, 4.337045, 4.337045, 4.337045];[0.0, 0.0, 0.0, 0.0, 0.0, 0.0, 0.0, 0.0, 0.0, 0.0, 0.0, 0.0, 0.0, 0.0, 0.0, 0.0, 0.0, 0.0, 0.0, 0.0, 0.0, 0.0, 0.0, 0.0, 0.0, 0.0, 0.0, 0.0, 0.0, 0.0, 0.0, 0.0, 0.0, 0.0, 0.0, 0.0, 0.0, -1.1622148, -2.6078966, -3.1748307, -3.514991, -3.6567245, -3.713418, -3.7417645, -3.7417645, -3.770111, -3.798458, -3.968538, -4.166965, -4.4504323, -4.648859, -4.733899, -4.818939, -4.875633, -4.9039793, -4.932326, -4.9890194, -5.045713, -5.2441397, -5.4425664, -5.66934, -5.782727, -5.896114, -5.924461, -5.9528074, -5.981154, -6.0095005, -6.0095005, -6.0095005, -6.0095005, -6.0095005, -6.0095005, -6.037847, -6.037847, -6.037847, -6.037847, -6.037847, -6.037847, -6.037847, -6.037847, -6.037847, -6.037847, -6.037847, -6.037847, -6.037847, -6.037847, -6.037847, -6.037847];[0.004303200053982437, 0.016535200062207878, 0.03463400003965944, 0.049862900050356984, 0.0687366999918595, 0.08347169996704906, 0.10045640007592738, 0.11655220005195588, 0.1347059999825433, 0.14955710002686828, 0.16793170000892133, 0.18330230005085468, 0.19996560004074126, 0.21712849999312311, 0.2352096000686288, 0.249986800015904, 0.2668646000092849, 0.2834738000528887, 0.3026073999935761, 0.3161518999841064, 0.3339049000060186, 0.34985240001697093, 0.3685756999766454, 0.3837849000701681, 0.4012116000521928, 0.4166861000703648, 0.4344944000476971, 0.44963649997953326, 0.4677835999755189, 0.48358290002215654, 0.5003860000288114, 0.5159062000457197, 0.5344841000624001, 0.5501136999810115, 0.5681346000637859, 0.5840554999886081, 0.6001226999796927, 0.6166500999825075, 0.6349782000761479, 0.648874600068666, 0.6673352000070736, 0.6828633999684826, 0.6993738000746816, 0.7160535000730306, 0.7332010000245646, 0.7498247000621632, 0.7680143000325188, 0.7823000999633223, 0.7994299000129104, 0.816550699993968, 0.8328122000675648, 0.8494559000246227, 0.8666164000751451, 0.8822994000511244, 0.9007550000678748, 0.9162971000187099, 0.9330878000473604, 0.9488212000578642, 0.96622240007855, 0.9827499999664724, 0.9994566000532359, 1.0166360000148416, 1.0344778000144288, 1.0494987000711262, 1.066818300052546, 1.0826256000436842, 1.099928900017403, 1.1169909000163898, 1.1329905000748113, 1.1490704000461847, 1.1685182000510395, 1.1821376000298187, 1.2003487000474706, 1.2149575999937952, 1.23318790004123, 1.2495332000544295, 1.2658363999798894, 1.282802600064315, 1.301159100024961, 1.3160572000779212, 1.3337108000414446, 1.3502242000540718, 1.367607600055635, 1.383663999964483, 1.3996768000070006, 1.4155942000215873, 1.4340269999811426, 1.4490091999759898]
testtrial;6;0;0;1;False;3000;True;;8;40.8852236021969;drag;L;7.313449;5.017366;0;34.45;8.87;1.1987857000203803;1.1988504000473768;1684225731.745525;1684225731.7491577;1684225732.5049155;1684225733.005262;1684225736.0032244;1684225737.2024622;[0.0, 0.0, 0.0, 0.0, 0.0, 0.0, 0.0, 0.0, 0.0, 0.0, 0.0, 0.0, 0.0, 0.0, 0.0, 0.0, 0.0, 0.0, 0.0, 0.0, 0.0, 0.0, 0.0, 0.0, 0.0, 0.0, 0.76536095, 2.5228565, 3.1181371, 3.7417645, 3.9401915, 4.081925, 4.1953115, 4.252005, 4.2803516, 4.337045, 4.337045, 4.365392, 4.4504323, 4.5354724, 4.847286, 5.130753, 5.4992604, 5.66934, 5.782727, 5.924461, 6.0661945, 6.151234, 6.292968, 6.3496614, 6.491395, 6.6047816, 6.7465153, 6.9732885, 7.0583286, 7.143369, 7.228409, 7.2567554, 7.285102, 7.313449, 7.313449, 7.313449, 7.313449, 7.313449, 7.313449, 7.313449, 7.313449, 7.313449, 7.313449, 7.313449, 7.313449, 7.313449];[0.0, 0.0, 0.0, 0.0, 0.0, 0.0, 0.0, 0.0, 0.0, 0.0, 0.0, 0.0, 0.0, 0.0, 0.0, 0.0, 0.0, 0.0, 0.0, 0.0, 0.0, 0.0, 0.0, 0.0, 0.0, 0.0, 0.6803208, 2.1260026, 2.6078966, 2.948057, 3.0614438, 3.146484, 3.2031772, 3.2031772, 3.2031772, 3.2031772, 3.2031772, 3.2031772, 3.2598708, 3.316564, 3.4582977, 3.6000311, 3.8268046, 3.8834982, 3.9401915, 3.996885, 4.0535784, 4.1386185, 4.252005, 4.3086987, 4.3937387, 4.478779, 4.563819, 4.733899, 4.818939, 4.875633, 4.932326, 4.960673, 4.9890194, 4.9890194, 5.017366, 5.017366, 5.017366, 5.017366, 5.017366, 5.017366, 5.017366, 5.017366, 5.017366, 5.017366, 5.017366, 5.017366];[0.0036693000001832843, 0.017961100093089044, 0.035529700107872486, 0.052502900012768805, 0.06978130002971739, 0.0842017000541091, 0.10154090006835759, 0.11732520000077784, 0.13479920011013746, 0.1510701000224799, 0.16827180003747344, 0.18384870002046227, 0.20088820008095354, 0.21701490005943924, 0.23475300008431077, 0.2511881000827998, 0.2680525000905618, 0.2867614000570029, 0.3013035000767559, 0.31783000007271767, 0.33467360003851354, 0.3507567000342533, 0.36812770005781204, 0.3841543000889942, 0.401239600032568, 0.41665290005039424, 0.4339601000538096, 0.44990820006933063, 0.4675194000592455, 0.48386930010747164, 0.500492800027132, 0.5177317000925541, 0.5333820000523701, 0.5517269000411034, 0.5682331999996677, 0.5839294000761583, 0.6019365000538528, 0.6167911000084132, 0.6336701000109315, 0.6500964000588283, 0.6668323000194505, 0.6840944000286981, 0.7015200000023469, 0.7171489000320435, 0.7343721000943333, 0.7512243000091985, 0.7669478000607342, 0.7835753000108525, 0.8003009000094607, 0.8176223000045866, 0.8348890000488609, 0.8504307001130655, 0.8678005000110716, 0.8839980000630021, 0.9000500000547618, 0.9169980000006035, 0.9334628001088277, 0.9500855000223964, 0.966129400068894, 0.9826923001091927, 1.0012268000282347, 1.0165646000532433, 1.0342861000681296, 1.0507851000875235, 1.0684746000915766, 1.0839113000547513, 1.1016699000028893, 1.1174398000584915, 1.1355634001083672, 1.1504575000144541, 1.167550400015898, 1.1840123001020402]
testtrial;7;0;0;1;False;1000;True;;8;175.44097743108634;drag;L;-7.9654226;0.0566934;0;179.59;7.97;1.247827099985443;1.2479125000536442;1684225738.0261457;1684225738.0329719;1684225738.7874732;1684225739.2878375;1684225740.2703228;1684225741.5189536;[0.0, 0.0, 0.0, 0.0, 0.0, 0.0, 0.0, 0.0, 0.0, 0.0, 0.0, 0.0, 0.0, 0.0, 0.0, 0.0, 0.0, 0.0, 0.0, 0.0, 0.0, 0.0, 0.0, 0.0, 0.0, 0.0, 0.0, 0.0, 0.0, 0.0, 0.0, 0.0, 0.0, -2.6929367, -4.365392, -6.7465153, -7.9087296, -8.560703, -8.844172, -8.900865, -8.929211, -8.957558, -8.957558, -8.957558, -8.957558, -8.957558, -8.957558, -8.957558, -8.957558, -8.957558, -8.957558, -8.957558, -8.957558, -8.957558, -8.957558, -8.957558, -8.702437, -8.362277, -8.220544, -8.16385, -8.07881, -8.050464, -8.022117, -7.99377, -7.9654226, -7.9654226, -7.9654226, -7.9654226, -7.9654226, -7.9654226, -7.9654226, -7.9654226, -7.9654226, -7.9654226, -7.9654226];[0.0, 0.0, 0.0, 0.0, 0.0, 0.0, 0.0, 0.0, 0.0, 0.0, 0.0, 0.0, 0.0, 0.0, 0.0, 0.0, 0.0, 0.0, 0.0, 0.0, 0.0, 0.0, 0.0, 0.0, 0.0, 0.0, 0.0, 0.0, 0.0, 0.0, 0.0, 0.0, 0.0, -0.5102406, -0.65197414, -0.5102406, -0.3401604, -0.3118137, -0.28346702, -0.28346702, -0.28346702, -0.28346702, -0.28346702, -0.28346702, -0.28346702, -0.28346702, -0.28346702, -0.28346702, -0.28346702, -0.28346702, -0.28346702, -0.28346702, -0.28346702, -0.28346702, -0.28346702, -0.28346702, -0.19842692, -0.0850401, -0.0283467, 0.0, 0.0283467, 0.0283467, 0.0566934, 0.0566934, 0.0566934, 0.0566934, 0.0566934, 0.0566934, 0.0566934, 0.0566934, 0.0566934, 0.0566934, 0.0566934, 0.0566934, 0.0566934];[0.004482500022277236, 0.018480900092981756, 0.03464299999177456, 0.05224890005774796, 0.067689000046812, 0.08562999998684973, 0.10133960004895926, 0.11851450009271502, 0.1344814000185579, 0.15260310005396605, 0.16731370007619262, 0.18560460000298917, 0.20068190002348274, 0.21786640002392232, 0.23320360004436225, 0.2512786000734195, 0.2674741999944672, 0.28574060008395463, 0.3007624000310898, 0.3199994000606239, 0.3348231000127271, 0.352148300036788, 0.36824830004479736, 0.3857033000094816, 0.40191020001657307, 0.4187488000607118, 0.4336131000891328, 0.45119990000966936, 0.467242700047791, 0.4855105000315234, 0.5008419000077993, 0.5175029000965878, 0.5340801000129431, 0.5505596000002697, 0.5670724000083283, 0.5849107999820262, 0.6000633999938145, 0.6181818000040948, 0.6338357999920845, 0.6522814000491053, 0.667318299994804, 0.6846850999863818, 0.7010170000139624, 0.718417500029318, 0.7344929000828415, 0.7529142000712454, 0.7668066000333056, 0.7855191000271589, 0.8021072000265121, 0.8176999000133947, 0.8343159999931231, 0.8515787000069395, 0.8674041000194848, 0.8851362999994308, 0.9005402000620961, 0.9199582000728697, 0.9345711000496522, 0.9515213000122458, 0.9671412000898272, 0.9839855000609532, 1.0002287999959663, 1.0165796000510454, 1.0330241000046954, 1.0492569000925869, 1.0666845000814646, 1.083062699995935, 1.0987584000686184, 1.1156134000048041, 1.1319638000568375, 1.1487963000545278, 1.1650012000463903, 1.1823291000910103, 1.1990449000149965, 1.2163717000512406, 1.232149500050582]
testtrial;8;0;0;1;False;3000;True;;8;115.70695004523378;drag;L;-4.733899;5.896114;0;128.76;7.56;1.1667770000640303;1.1668160000117496;1684225742.2779484;1684225742.2826672;1684225743.0346613;1684225743.5366323;1684225746.5376215;1684225747.7039754;[0.0, 0.0, 0.0, 0.0, 0.0, 0.0, 0.0, 0.0, 0.0, 0.0, 0.0, 0.0, 0.0, 0.0, 0.0, 0.0, 0.0, 0.0, 0.0, 0.0, 0.0, 0.0, 0.0, 0.0, 0.0, 0.0, 0.0, 0.0, -1.7858423, -3.1748307, -3.6283777, -3.798458, -3.8551514, -3.8834982, -3.8834982, -3.8834982, -3.8834982, -3.8834982, -3.8834982, -3.8834982, -3.8834982, -3.8834982, -3.8834982, -3.8268046, -3.8268046, -3.798458, -3.798458, -3.798458, -3.968538, -4.1953115, -4.365392, -4.5354724, -4.5921655, -4.648859, -4.6772056, -4.7055526, -4.733899, -4.733899, -4.733899, -4.733899, -4.733899, -4.733899, -4.733899, -4.733899, -4.733899, -4.733899, -4.733899, -4.733899, -4.733899, -4.733899];[0.0, 0.0, 0.0, 0.0, 0.0, 0.0, 0.0, 0.0, 0.0, 0.0, 0.0, 0.0, 0.0, 0.0, 0.0, 0.0, 0.0, 0.0, 0.0, 0.0, 0.0, 0.0, 0.0, 0.0, 0.0, 0.0, 0.0, 0.0, 2.2393894, 4.3086987, 4.960673, 5.1874466, 5.2441397, 5.2724867, 5.300833, 5.300833, 5.300833, 5.300833, 5.300833, 5.300833, 5.300833, 5.32918, 5.32918, 5.41422, 5.4425664, 5.4992604, 5.4992604, 5.527607, 5.6409936, 5.697687, 5.782727, 5.8677673, 5.8677673, 5.8677673, 5.896114, 5.896114, 5.896114, 5.896114, 5.896114, 5.896114, 5.896114, 5.896114, 5.896114, 5.896114, 5.896114, 5.896114, 5.896114, 5.896114, 5.896114, 5.896114];[0.00404919998254627, 0.01639839995186776, 0.0338112999452278, 0.05020020005758852, 0.0693436999572441, 0.0844621000578627, 0.10279819997958839, 0.11671790003310889, 0.13580629997886717, 0.15031469997484237, 0.16831590002402663, 0.18504600005690008, 0.20219189999625087, 0.21742290002293885, 0.23550189996603876, 0.2513213000493124, 0.26847540005110204, 0.28434390004258603, 0.30358299997169524, 0.3173816000344232, 0.33483419998083264, 0.35047890001442283, 0.36701010004617274, 0.38421639997977763, 0.40077810001093894, 0.4166111999657005, 0.43421900004614145, 0.4496724000200629, 0.46766399999614805, 0.4834887000033632, 0.5017771000275388, 0.5169047999661416, 0.5345909000607207, 0.5494855999713764, 0.5676448000594974, 0.5836651000427082, 0.6011458999710158, 0.6167579999892041, 0.6350108999758959, 0.651871099951677, 0.6672250999836251, 0.6843153999652714, 0.7000758999492973, 0.7168929999461398, 0.734395100036636, 0.7511014000046998, 0.7672689999453723, 0.7835122999968007, 0.7995609999634326, 0.8156447999645025, 0.8336779000237584, 0.8489672000287101, 0.8666665999917313, 0.8828202000586316, 0.8997246000217274, 0.9170051000546664, 0.9343227000208572, 0.9509988999925554, 0.9680557999527082, 0.9837534000398591, 1.0011072000488639, 1.0180075999815017, 1.0360418000491336, 1.0509166000410914, 1.0682787999976426, 1.083635100047104, 1.100322199985385, 1.1172022999962792, 1.1364386000204831, 1.1504221999784932]
testtrial;9;0;0;1;False;1000;True;;8;21.226119831267;drag;L;7.9654226;3.4016042;0;23.12;8.66;1.2985129998996854;1.298594200052321;1684225748.5292025;1684225748.549917;1684225749.304042;1684225749.804497;1684225750.7870743;1684225752.085587;[0.0, 0.0, 0.0, 0.0, 0.0, 0.0, 0.0, 0.0, 0.0, 0.0, 0.0, 0.0, 0.0, 0.0, 0.0, 0.0, 0.0, 0.0, 0.0, 0.0, 0.0, 0.0, 0.0, 0.0, 0.0, 0.0, 0.0, 0.0, 0.0, 0.0, 0.0, 0.0, 0.39685383, 1.3889884, 2.4945097, 3.2031772, 3.8268046, 4.478779, 4.7055526, 4.847286, 5.017366, 5.130753, 5.215793, 5.300833, 5.3575263, 5.4425664, 5.4992604, 5.612647, 5.66934, 5.782727, 5.896114, 6.151234, 6.3496614, 6.6047816, 6.7465153, 6.8599014, 7.086675, 7.228409, 7.341796, 7.5118756, 7.596916, 7.7386494, 7.795343, 7.8520365, 7.937076, 7.9654226, 7.9654226, 7.9654226, 7.9654226, 7.9654226, 7.9654226, 7.9654226, 7.9654226, 7.9654226, 7.9654226, 7.9654226, 7.9654226, 7.9654226];[0.0, 0.0, 0.0, 0.0, 0.0, 0.0, 0.0, 0.0, 0.0, 0.0, 0.0, 0.0, 0.0, 0.0, 0.0, 0.0, 0.0, 0.0, 0.0, 0.0, 0.0, 0.0, 0.0, 0.0, 0.0, 0.0, 0.0, 0.0, 0.0, 0.0, 0.0, 0.0, 0.1700802, 0.6236274, 1.1622148, 1.417335, 1.6724553, 1.8141888, 1.8425356, 1.8425356, 1.8708823, 1.8708823, 1.899229, 1.899229, 1.9275757, 1.9559225, 1.984269, 2.012616, 2.0693092, 2.1260026, 2.182696, 2.3527763, 2.4378164, 2.57955, 2.6362433, 2.6929367, 2.8630168, 2.948057, 3.0047503, 3.0897903, 3.146484, 3.2031772, 3.2598708, 3.2882173, 3.3449106, 3.3732576, 3.4016042, 3.4016042, 3.4016042, 3.4016042, 3.4016042, 3.4016042, 3.4016042, 3.4016042, 3.4016042, 3.4016042, 3.4016042, 3.4016042];[0.004414500086568296, 0.018014100030995905, 0.03419530007522553, 0.051054100040346384, 0.0670078000985086, 0.08405619999393821, 0.10035530000459403, 0.11807570001110435, 0.1332485000602901, 0.1510278000496328, 0.1670165000250563, 0.18446510005742311, 0.20007620006799698, 0.21721700008492917, 0.2337171999970451, 0.2510033000726253, 0.2669702999992296, 0.28477750008460134, 0.2987480000592768, 0.31543270009569824, 0.33301920001395047, 0.35001829999964684, 0.36654790001921356, 0.3841895000077784, 0.4004497000714764, 0.4177032000152394, 0.4336668000323698, 0.4524615000700578, 0.466766000026837, 0.4844345001038164, 0.5009424000745639, 0.5175706000300124, 0.5336708000395447, 0.5507371000712737, 0.5671545000514016, 0.5836019000271335, 0.5993203000398353, 0.6161168999969959, 0.6332959000719711, 0.6509588999906555, 0.6674348000669852, 0.6844546000938863, 0.6997603999916464, 0.716847600066103, 0.733789800084196, 0.751287900027819, 0.7673558000242338, 0.7845069000031799, 0.8000055000884458, 0.8179780000355095, 0.8330379000399262, 0.8510401000967249, 0.8671326000476256, 0.8844526000320911, 0.9002508000703529, 0.9165964000858366, 0.9334148000925779, 0.9512842000694945, 0.9667343000182882, 0.9838830000953749, 0.9997365000890568, 1.0170572000788525, 1.0329745000926778, 1.0510751000838354, 1.0670635000569746, 1.0838537000818178, 1.1000303000910208, 1.1180634000338614, 1.134861300000921, 1.1521142000565305, 1.1656380000058562, 1.1836198000237346, 1.2006080000428483, 1.21830430009868, 1.2344605000689626, 1.2507567000575364, 1.2672441001050174, 1.285031700041145]
testtrial;10;0;0;1;False;3000;True;;8;-9.08505864126913;drag;L;8.107157;-0.19842692;0;-1.4;8.11;1.4131018000189215;1.4131940000224859;1684225752.9022255;1684225752.914859;1684225753.6705368;1684225754.1713066;1684225757.171209;1684225758.5835845;[0.0, 0.0, 0.0, 0.0, 0.0, 0.0, 0.0, 0.0, 0.0, 0.0, 0.0, 0.0, 0.0, 0.0, 0.0, 0.0, 0.0, 0.0, 0.0, 0.0, 0.0, 0.0, 0.0, 0.0, 0.0, 0.0, 0.0, 0.39685383, 1.4456817, 2.5512033, 3.2031772, 3.7417645, 4.2803516, 4.5071254, 4.847286, 5.017366, 5.1874466, 5.2441397, 5.3575263, 5.4425664, 5.5559535, 5.66934, 5.7260337, 5.811074, 5.8677673, 5.924461, 5.9528074, 6.0095005, 6.2079277, 6.4630475, 6.7181687, 6.9732885, 7.1150217, 7.313449, 7.5118756, 7.681956, 7.937076, 8.022117, 8.107157, 8.107157, 8.107157, 8.107157, 8.107157, 8.107157, 8.107157, 8.107157, 8.107157, 8.107157, 8.107157, 8.107157, 8.107157, 8.107157, 8.107157, 8.107157, 8.107157, 8.107157, 8.107157, 8.107157, 8.107157, 8.107157, 8.107157, 8.107157, 8.107157, 8.107157, 8.107157];[0.0, 0.0, 0.0, 0.0, 0.0, 0.0, 0.0, 0.0, 0.0, 0.0, 0.0, 0.0, 0.0, 0.0, 0.0, 0.0, 0.0, 0.0, 0.0, 0.0, 0.0, 0.0, 0.0, 0.0, 0.0, 0.0, 0.0, 0.0, 0.0283467, 0.1133868, 0.14173351, 0.14173351, 0.1133868, 0.1133868, 0.1133868, 0.14173351, 0.1700802, 0.1700802, 0.19842692, 0.2267736, 0.2267736, 0.2551203, 0.2551203, 0.2551203, 0.2551203, 0.2551203, 0.2551203, 0.2551203, 0.1700802, 0.0566934, -0.0283467, -0.1133868, -0.1133868, -0.1133868, -0.14173351, -0.1700802, -0.19842692, -0.19842692, -0.19842692, -0.19842692, -0.19842692, -0.19842692, -0.19842692, -0.19842692, -0.19842692, -0.19842692, -0.19842692, -0.19842692, -0.19842692, -0.19842692, -0.19842692, -0.19842692, -0.19842692, -0.19842692, -0.19842692, -0.19842692, -0.19842692, -0.19842692, -0.19842692, -0.19842692, -0.19842692, -0.19842692, -0.19842692, -0.19842692, -0.19842692];[0.0045418000081554055, 0.017603899934329093, 0.034868599963374436, 0.0500088999979198, 0.06792940001469105, 0.08360040001571178, 0.10252989991568029, 0.11660990002565086, 0.1333159999921918, 0.14866529998835176, 0.1661035999422893, 0.1823015999980271, 0.19964379991870373, 0.21571239992044866, 0.23233449994586408, 0.248360599973239, 0.2663415999850258, 0.2820352999260649, 0.29965209995862097, 0.31531019997783005, 0.3336412999778986, 0.35010149993468076, 0.36584779992699623, 0.3825358999893069, 0.3983838999411091, 0.4167760999407619, 0.43218889995478094, 0.4484971999190748, 0.46597739995922893, 0.48234909994062036, 0.4982810999499634, 0.5158411000156775, 0.5333156000124291, 0.5491611999459565, 0.5669202000135556, 0.5820174999535084, 0.6016757999313995, 0.6152575999731198, 0.6333160999929532, 0.6493469999404624, 0.6670235999627039, 0.6831217999570072, 0.7003477999242023, 0.7164613999193534, 0.7350011999951676, 0.7497442999156192, 0.7678427000064403, 0.783505899948068, 0.8010716999415308, 0.8170573000097647, 0.8339825000148267, 0.8492797999642789, 0.8675490999594331, 0.884082300006412, 0.9012675000121817, 0.9163773999316618, 0.9326181999640539, 0.9490359999472275, 0.9671273999847472, 0.9821559999836609, 1.0024538999423385, 1.0165700999787077, 1.0333107999758795, 1.0497578999493271, 1.0660343000199646, 1.0825620000250638, 1.1000689999200404, 1.1159455999732018, 1.1329129999503493, 1.1490733999526128, 1.1665373999858275, 1.1819699999177828, 1.1999363999348134, 1.215458899969235, 1.2327674999833107, 1.2492207000032067, 1.266187599976547, 1.282219099928625, 1.2997364000184461, 1.3143709999276325, 1.3328109999420121, 1.350597699987702, 1.367167399963364, 1.3815987999550998, 1.3998470000224188]
testtrial;11;0;0;1;False;1000;True;;8;-155.42620659486832;drag;L;-7.313449;-3.7417645;0;-152.9;8.22;1.4991469000233337;1.499236400006339;1684225759.2727327;1684225759.2821283;1684225760.0355275;1684225760.5370405;1684225761.5180514;1684225763.017716;[0.0, 0.0, 0.0, 0.0, 0.0, 0.0, 0.0, 0.0, 0.0, 0.0, 0.0, 0.0, 0.0, 0.0, 0.0, 0.0, 0.0, 0.0, 0.0, 0.0, 0.0, 0.0, 0.0, 0.0, 0.0, 0.0, 0.0, 0.0, 0.0, 0.0, 0.0, 0.0, 0.0, 0.0, 0.0, 0.0, 0.0, 0.0, -0.5102406, -2.9197102, -4.166965, -6.2079277, -7.1150217, -7.710303, -8.192197, -8.277237, -8.33393, -8.362277, -8.390623, -8.390623, -8.418971, -8.418971, -8.418971, -8.418971, -8.418971, -8.418971, -8.418971, -8.418971, -8.418971, -8.418971, -8.418971, -8.418971, -8.418971, -8.33393, -8.192197, -8.07881, -7.9654226, -7.880383, -7.82369, -7.7669964, -7.7386494, -7.6536093, -7.596916, -7.540222, -7.4551826, -7.3984895, -7.3984895, -7.341796, -7.313449, -7.313449, -7.313449, -7.313449, -7.313449, -7.313449, -7.313449, -7.313449, -7.313449, -7.313449, -7.313449, -7.313449];[0.0, 0.0, 0.0, 0.0, 0.0, 0.0, 0.0, 0.0, 0.0, 0.0, 0.0, 0.0, 0.0, 0.0, 0.0, 0.0, 0.0, 0.0, 0.0, 0.0, 0.0, 0.0, 0.0, 0.0, 0.0, 0.0, 0.0, 0.0, 0.0, 0.0, 0.0, 0.0, 0.0, 0.0, 0.0, 0.0, 0.0, 0.0, -0.53858733, -2.012616, -2.381123, -2.8063235, -2.9764037, -3.1181371, -3.2598708, -3.2598708, -3.2882173, -3.2882173, -3.2882173, -3.2882173, -3.2882173, -3.2882173, -3.2882173, -3.2882173, -3.2882173, -3.2882173, -3.2882173, -3.2882173, -3.2882173, -3.2882173, -3.2882173, -3.2882173, -3.2882173, -3.2882173, -3.316564, -3.316564, -3.3449106, -3.3732576, -3.3732576, -3.4016042, -3.4299507, -3.514991, -3.5716846, -3.6283777, -3.6567245, -3.713418, -3.713418, -3.7417645, -3.7417645, -3.7417645, -3.7417645, -3.7417645, -3.7417645, -3.7417645, -3.7417645, -3.7417645, -3.7417645, -3.7417645, -3.7417645, -3.7417645];[0.003779500024393201, 0.019285700051113963, 0.03471130004618317, 0.052679300075396895, 0.06841539999004453, 0.08529179997276515, 0.10144330002367496, 0.11891399999149144, 0.13420139998197556, 0.15199879999272525, 0.1682818999979645, 0.18682629999238998, 0.2010961000341922, 0.21877739997580647, 0.23478000005707145, 0.2521291000302881, 0.2696301999967545, 0.28545530000701547, 0.301587300025858, 0.31890650000423193, 0.33443839999381453, 0.3522294000722468, 0.367674499982968, 0.3854486000491306, 0.400329599971883, 0.41845440003089607, 0.4349944000132382, 0.45187310001347214, 0.4684172000270337, 0.48532420000992715, 0.5016932999715209, 0.5187635000329465, 0.535056299995631, 0.5521597000770271, 0.566982900025323, 0.5861752000637352, 0.6010904000140727, 0.6184830999700353, 0.6344887000741437, 0.6513528000796214, 0.666973500046879, 0.6862639000173658, 0.7011827999958768, 0.7188502000644803, 0.7354743999894708, 0.7511926000006497, 0.7679560000542551, 0.7848570999922231, 0.8006776000838727, 0.8188533000648022, 0.8338770000264049, 0.852227900060825, 0.8671681000851095, 0.8844214000273496, 0.9013221000786871, 0.9176526999799535, 0.9334579000715166, 0.9515775999752805, 0.9676009999820963, 0.9856194000458345, 1.0009798000101, 1.0182384999934584, 1.035752100055106, 1.0512272000778466, 1.066938600037247, 1.0847154000075534, 1.1007026999723166, 1.1180760000133887, 1.1344386000419036, 1.1509833000600338, 1.168335200054571, 1.1845926999812946, 1.2009747000411153, 1.218722500023432, 1.233964000013657, 1.250639499980025, 1.2687944000354037, 1.2843152000568807, 1.3013767000520602, 1.317171800066717, 1.3328611999750137, 1.3512063000816852, 1.3676061000442132, 1.3855493000010028, 1.399570900015533, 1.4172334000468254, 1.4337446000427008, 1.4514587000012398, 1.4669192000292242, 1.4846493999939412]
testtrial;12;0;0;1;False;3000;True;;8;26.006632244751113;drag;L;8.560703;4.025232;0;25.18;9.46;1.4965561999706551;1.4966641999781132;1684225763.8351004;1684225763.848448;1684225764.6042519;1684225765.1033251;1684225768.1038778;1684225769.6010978;[0.0, 0.0, 0.0, 0.0, 0.0, 0.0, 0.0, 0.0, 0.0, 0.0, 0.0, 0.0, 0.0, 0.0, 0.0, 0.0, 0.0, 0.0, 0.0, 0.0, 0.0, 0.0, 0.0, 0.0, 0.0, 0.0, 0.0, 1.6441087, 2.3244295, 2.8063235, 3.3732576, 3.5716846, 3.798458, 4.081925, 4.252005, 4.3937387, 4.5921655, 4.818939, 5.1874466, 5.4992604, 5.697687, 6.0095005, 6.2362742, 6.4630475, 6.774862, 7.0583286, 7.4551826, 7.6536093, 7.937076, 8.24889, 8.447317, 8.645744, 8.7591305, 8.872518, 8.985904, 9.042598, 9.070945, 9.127638, 9.155985, 9.184331, 9.184331, 9.212678, 9.212678, 9.241024, 9.241024, 9.241024, 9.241024, 9.212678, 9.127638, 9.014251, 8.844172, 8.7591305, 8.702437, 8.67409, 8.617397, 8.617397, 8.58905, 8.58905, 8.58905, 8.560703, 8.560703, 8.560703, 8.560703, 8.560703, 8.560703, 8.560703, 8.560703, 8.560703, 8.560703, 8.560703];[0.0, 0.0, 0.0, 0.0, 0.0, 0.0, 0.0, 0.0, 0.0, 0.0, 0.0, 0.0, 0.0, 0.0, 0.0, 0.0, 0.0, 0.0, 0.0, 0.0, 0.0, 0.0, 0.0, 0.0, 0.0, 0.0, 0.0, 1.2756016, 1.7291489, 1.9559225, 2.182696, 2.2677362, 2.2960827, 2.3244295, 2.3527763, 2.381123, 2.4094696, 2.466163, 2.57955, 2.7212832, 2.83467, 2.948057, 3.0614438, 3.146484, 3.2882173, 3.3732576, 3.4866443, 3.5716846, 3.7417645, 3.968538, 4.081925, 4.2236586, 4.3086987, 4.365392, 4.478779, 4.5071254, 4.5071254, 4.563819, 4.563819, 4.5921655, 4.5921655, 4.5921655, 4.5921655, 4.5921655, 4.5921655, 4.5921655, 4.563819, 4.5354724, 4.4504323, 4.365392, 4.1953115, 4.1386185, 4.110272, 4.0535784, 4.0535784, 4.0535784, 4.025232, 4.025232, 4.025232, 4.025232, 4.025232, 4.025232, 4.025232, 4.025232, 4.025232, 4.025232, 4.025232, 4.025232, 4.025232, 4.025232];[0.004318600054830313, 0.015257199993357062, 0.03410599997732788, 0.04818440007511526, 0.06779580004513264, 0.08253450004849583, 0.099323800066486, 0.11496799997985363, 0.13394010008778423, 0.14846120006404817, 0.1657840000698343, 0.18183660006616265, 0.19992390007246286, 0.21449490007944405, 0.23178550007287413, 0.2503800999838859, 0.26497500005643815, 0.28120620001573116, 0.2985270000062883, 0.3151971000479534, 0.3308279999764636, 0.3477370000910014, 0.3650968000292778, 0.3818481999915093, 0.40017080004327, 0.4154048999771476, 0.43361690000165254, 0.44952830008696765, 0.46587050007656217, 0.48351220006588846, 0.49852310004644096, 0.5168416000669822, 0.5337218000786379, 0.5491746000479907, 0.567389199975878, 0.5830672000302002, 0.5990449000382796, 0.6172101000556722, 0.6333250000607222, 0.6480944000650197, 0.6671669000061229, 0.6816020000260323, 0.7015498999971896, 0.7159724000375718, 0.7322167999809608, 0.7496490000048652, 0.7652235000859946, 0.7816191000165418, 0.8003594999900088, 0.8150903000496328, 0.8325622000265867, 0.8493670000461861, 0.8661028000060469, 0.8820996000431478, 0.8986884000478312, 0.9152011000551283, 0.9333019000478089, 0.9500555000267923, 0.9675525000784546, 0.9828037000261247, 0.9995826000813395, 1.0161406000843272, 1.0322042000479996, 1.0483920000260696, 1.0666221000719815, 1.0807778000598773, 1.09981779998634, 1.114870100049302, 1.1315743000013754, 1.1489206000696868, 1.1651410000631586, 1.1813463000580668, 1.19948840001598, 1.214432500069961, 1.2334251999855042, 1.248257700004615, 1.2651461000787094, 1.2829000999918208, 1.297874000039883, 1.314198000007309, 1.3327299000229686, 1.3474639999913052, 1.3659174999920651, 1.3825561000267044, 1.3995750000467524, 1.4162913999753073, 1.4326012000674382, 1.4485426000319421, 1.465085900039412, 1.4806907000020146]
testtrial;13;0;0;1;False;1000;True;;8;159.65123961661712;drag;L;-7.3701425;3.3449106;0;155.59;8.09;1.366413899930194;1.366502400022;1684225770.3772666;1684225770.3813882;1684225771.1350014;1684225771.636715;1684225772.6177742;1684225773.9847622;[0.0, 0.0, 0.0, 0.0, 0.0, 0.0, 0.0, 0.0, 0.0, 0.0, 0.0, 0.0, 0.0, 0.0, 0.0, 0.0, 0.0, 0.0, 0.0, 0.0, 0.0, 0.0, 0.0, 0.0, 0.0, 0.0, 0.0, 0.0, 0.0, 0.0, 0.0, 0.0, 0.0, 0.0, 0.0, 0.0, 0.0, 0.0, 0.0, 0.0, 0.0, 0.0, 0.0, 0.0, 0.0, 0.0, -2.83467, -4.337045, -5.4709134, -6.1228876, -6.2079277, -6.2362742, -6.264621, -6.292968, -6.321315, -6.3496614, -6.4063544, -6.5197415, -6.633128, -6.9165955, -7.0583286, -7.143369, -7.228409, -7.2567554, -7.285102, -7.313449, -7.341796, -7.341796, -7.3701425, -7.3701425, -7.3701425, -7.3701425, -7.3701425, -7.3701425, -7.3701425, -7.3701425, -7.3701425, -7.3701425, -7.3701425, -7.3701425, -7.3701425, -7.3701425];[0.0, 0.0, 0.0, 0.0, 0.0, 0.0, 0.0, 0.0, 0.0, 0.0, 0.0, 0.0, 0.0, 0.0, 0.0, 0.0, 0.0, 0.0, 0.0, 0.0, 0.0, 0.0, 0.0, 0.0, 0.0, 0.0, 0.0, 0.0, 0.0, 0.0, 0.0, 0.0, 0.0, 0.0, 0.0, 0.0, 0.0, 0.0, 0.0, 0.0, 0.0, 0.0, 0.0, 0.0, 0.0, 0.0, 0.56693405, 1.4740285, 2.3244295, 2.7496302, 2.7779768, 2.8063235, 2.8063235, 2.83467, 2.8630168, 2.8630168, 2.8630168, 2.8913634, 2.9197102, 3.0614438, 3.146484, 3.2031772, 3.2315238, 3.2598708, 3.2598708, 3.2882173, 3.2882173, 3.316564, 3.316564, 3.316564, 3.3449106, 3.3449106, 3.3449106, 3.3449106, 3.3449106, 3.3449106, 3.3449106, 3.3449106, 3.3449106, 3.3449106, 3.3449106, 3.3449106];[0.0037927000084891915, 0.018654400017112494, 0.03403700003400445, 0.05207590002100915, 0.06698569993022829, 0.08541539998259395, 0.10051260003820062, 0.11796940001659095, 0.13426620000973344, 0.15264899993781, 0.1670422999886796, 0.1873003999935463, 0.20023489999584854, 0.21937950002029538, 0.23399490001611412, 0.2516973000019789, 0.26762719999533147, 0.2849875999381766, 0.3011010999325663, 0.31853659998159856, 0.3337784999748692, 0.3521106999833137, 0.3680050999391824, 0.38496059994213283, 0.40145609993487597, 0.41841269994620234, 0.4347088999347761, 0.45213250000961125, 0.46794819994829595, 0.4850764999864623, 0.5013667999301106, 0.518510999972932, 0.5343271000310779, 0.5519228000193834, 0.5679216999560595, 0.5851269999984652, 0.6011401999276131, 0.6185093999374658, 0.6353208000073209, 0.6509817999321967, 0.6661397999851033, 0.6835936999414116, 0.7017339000012726, 0.7177296000299975, 0.7334190999390557, 0.7523566000163555, 0.7668558999430388, 0.7853588999714702, 0.8007280000019819, 0.8181201999541372, 0.8353762000333518, 0.8507289999397472, 0.8667975999414921, 0.8854619000339881, 0.9022192000411451, 0.919513399945572, 0.9351223999401554, 0.9517515000188723, 0.9676714999368414, 0.9850587999681011, 1.0021055999677628, 1.0198242999613285, 1.0353424999630079, 1.0546015999279916, 1.0688856999622658, 1.0857228999957442, 1.101694899960421, 1.1195871999952942, 1.13415299996268, 1.151145700016059, 1.1676213999744505, 1.1872832999797538, 1.2023049999261275, 1.2198983000125736, 1.2363363000331447, 1.2535000999923795, 1.2696700999513268, 1.286936999997124, 1.301951100002043, 1.3194876000052318, 1.3350176999811083, 1.3520016999682412]
testtrial;14;0;0;1;False;1000;True;;8;2.228580498247628;drag;L;8.815824;0.9921345;0;6.42;8.87;1.5161828000564128;1.5162881000433117;1684225774.6944442;1684225774.7142782;1684225775.4661243;1684225775.967897;1684225776.95253;1684225778.4683378;[0.0, 0.0, 0.0, 0.0, 0.0, 0.0, 0.0, 0.0, 0.0, 0.0, 0.0, 0.0, 0.0, 0.0, 0.0, 0.0, 0.0, 0.0, 0.0, 0.0, 0.0, 0.0, 0.0, 0.0, 0.0, 0.0, 0.0, 0.0, 0.0, 0.0, 0.0, 1.7858423, 2.7779768, 3.5716846, 4.3086987, 5.045713, 5.3575263, 5.527607, 5.6409936, 5.697687, 5.75438, 5.8677673, 5.924461, 6.094541, 6.2079277, 6.378008, 6.434701, 6.6047816, 6.8032084, 7.029982, 7.540222, 7.82369, 8.107157, 8.362277, 8.815824, 9.099292, 9.326065, 9.609531, 9.7229185, 9.807959, 9.836306, 9.864652, 9.892999, 9.892999, 9.892999, 9.892999, 9.892999, 9.892999, 9.836306, 9.807959, 9.694572, 9.581185, 9.439451, 9.241024, 9.127638, 9.014251, 8.957558, 8.900865, 8.872518, 8.815824, 8.815824, 8.815824, 8.815824, 8.815824, 8.815824, 8.815824, 8.815824, 8.815824, 8.815824, 8.815824, 8.815824];[0.0, 0.0, 0.0, 0.0, 0.0, 0.0, 0.0, 0.0, 0.0, 0.0, 0.0, 0.0, 0.0, 0.0, 0.0, 0.0, 0.0, 0.0, 0.0, 0.0, 0.0, 0.0, 0.0, 0.0, 0.0, 0.0, 0.0, 0.0, 0.0, 0.0, 0.0, 0.2551203, 0.2551203, 0.14173351, 0.0566934, -0.0283467, -0.0850401, -0.14173351, -0.1700802, -0.19842692, -0.19842692, -0.2267736, -0.2551203, -0.3118137, -0.3401604, -0.3401604, -0.3401604, -0.3401604, -0.2551203, -0.1700802, 0.0, 0.0850401, 0.1700802, 0.28346702, 0.42520052, 0.4535472, 0.48189393, 0.48189393, 0.5102406, 0.53858733, 0.53858733, 0.59528077, 0.6236274, 0.65197414, 0.7086675, 0.76536095, 0.79370767, 0.85040104, 0.87874776, 0.93544114, 0.93544114, 0.96378785, 0.96378785, 0.96378785, 0.96378785, 0.96378785, 0.96378785, 0.96378785, 0.96378785, 0.9921345, 0.9921345, 0.9921345, 0.9921345, 0.9921345, 0.9921345, 0.9921345, 0.9921345, 0.9921345, 0.9921345, 0.9921345, 0.9921345];[0.004619100014679134, 0.017900099977850914, 0.035325200064107776, 0.05129309999756515, 0.06761430006008595, 0.08469699998386204, 0.10071000002790242, 0.11907260003499687, 0.1344897000817582, 0.1524894000031054, 0.1681345000397414, 0.18517720000818372, 0.19996500003617257, 0.21930420002900064, 0.23486159997992218, 0.2516662999987602, 0.26703139999881387, 0.2862691000336781, 0.30251339997630566, 0.3185928000602871, 0.33527699997648597, 0.3519722999772057, 0.3679404000286013, 0.38565170008223504, 0.40185440005734563, 0.4185971000697464, 0.4340103000868112, 0.4514032000442967, 0.4683645999757573, 0.4846376000205055, 0.5008396999910474, 0.5203391000395641, 0.5337837000843138, 0.5506925000809133, 0.567193099996075, 0.584747500019148, 0.600400900002569, 0.6182146000210196, 0.6335292999865487, 0.65258300001733, 0.667022000066936, 0.682445100042969, 0.7006630999967456, 0.718192300060764, 0.7344766000751406, 0.751146599999629, 0.7669512999709696, 0.7862826000200585, 0.8022394999861717, 0.818495100014843, 0.8352290000766516, 0.8513842000393197, 0.8672987000318244, 0.8837418999755755, 0.9006542999995872, 0.9193990000057966, 0.9338235000614077, 0.9517391000408679, 0.967485300032422, 0.9833152000792325, 0.9998939000070095, 1.018962600035593, 1.033935600076802, 1.0506191999884322, 1.0667834000196308, 1.0845718000782654, 1.1025458000367507, 1.118101599975489, 1.134988100035116, 1.1512339999899268, 1.1672334000468254, 1.1843049000017345, 1.200815899996087, 1.2187496999977157, 1.2357188999885693, 1.2520325999939814, 1.267536300001666, 1.2863144000293687, 1.3007179000414908, 1.3184564000694081, 1.3340719999978319, 1.3514315000502393, 1.3673262000083923, 1.3845113000134006, 1.400900400010869, 1.4181197000434622, 1.4347203000215814, 1.4518948000622913, 1.4675060000736266, 1.4853501999750733, 1.5013023000210524]
testtrial;15;0;0;1;False;3000;True;;8;-155.40282624143384;drag;L;-7.483529;-3.6000311;0;-154.31;8.3;1.2312888000160456;1.2313783999998122;1684225779.2767112;1684225779.2809467;1684225780.035037;1684225780.5376062;1684225783.5359251;1684225784.7678714;[0.0, 0.0, 0.0, 0.0, 0.0, 0.0, 0.0, 0.0, 0.0, 0.0, 0.0, 0.0, 0.0, 0.0, 0.0, 0.0, 0.0, 0.0, 0.0, 0.0, 0.0, 0.0, 0.0, 0.0, 0.0, 0.0, -1.6157619, -2.7212832, -3.6850712, -4.847286, -5.5559535, -5.896114, -6.094541, -6.321315, -6.378008, -6.4630475, -6.548088, -6.633128, -6.7181687, -6.7465153, -6.774862, -6.8032084, -6.8599014, -6.8599014, -6.8599014, -6.888248, -6.888248, -6.9165955, -6.9165955, -6.944942, -6.9732885, -7.0016356, -7.0016356, -7.029982, -7.1150217, -7.228409, -7.313449, -7.341796, -7.3984895, -7.4551826, -7.483529, -7.483529, -7.483529, -7.483529, -7.483529, -7.483529, -7.483529, -7.483529, -7.483529, -7.483529, -7.483529, -7.483529, -7.483529, -7.483529];[0.0, 0.0, 0.0, 0.0, 0.0, 0.0, 0.0, 0.0, 0.0, 0.0, 0.0, 0.0, 0.0, 0.0, 0.0, 0.0, 0.0, 0.0, 0.0, 0.0, 0.0, 0.0, 0.0, 0.0, 0.0, 0.0, -1.1622148, -1.9275757, -2.4945097, -3.146484, -3.4582977, -3.6567245, -3.7417645, -3.8551514, -3.911845, -3.968538, -4.0535784, -4.1386185, -4.2236586, -4.252005, -4.3086987, -4.337045, -4.365392, -4.3937387, -4.3937387, -4.3937387, -4.3937387, -4.365392, -4.365392, -4.337045, -4.337045, -4.3086987, -4.3086987, -4.252005, -4.166965, -3.968538, -3.8834982, -3.798458, -3.713418, -3.6567245, -3.6283777, -3.6283777, -3.6000311, -3.6000311, -3.6000311, -3.6000311, -3.6000311, -3.6000311, -3.6000311, -3.6000311, -3.6000311, -3.6000311, -3.6000311, -3.6000311];[0.004434600006788969, 0.016604800010100007, 0.03425340005196631, 0.04975839995313436, 0.06753570004366338, 0.08235859998967499, 0.10062509996350855, 0.11609689996112138, 0.13381290005054325, 0.14924359996803105, 0.16900540003553033, 0.1835978999733925, 0.19941180001478642, 0.2165263999486342, 0.23368890001438558, 0.24924699997063726, 0.26734460005536675, 0.2837005000328645, 0.2997361000161618, 0.3153164000250399, 0.33327980001922697, 0.34996280004270375, 0.36792810005135834, 0.3824836000567302, 0.40047480002976954, 0.41617139999289066, 0.4335043999599293, 0.4486051000421867, 0.4661519000073895, 0.48138390004169196, 0.5021472000516951, 0.5159850999480113, 0.5335871999850497, 0.5498531999764964, 0.5668551999842748, 0.5830677000340074, 0.5987688000313938, 0.6153422000352293, 0.6346900999778882, 0.648426300031133, 0.6654616000596434, 0.6814000000013039, 0.6983999999938533, 0.7154606999829412, 0.7323484000517055, 0.7491532999556512, 0.7675278000533581, 0.7817489999579266, 0.7988604999845847, 0.814794100006111, 0.8314022000413388, 0.8483906000619754, 0.865987200057134, 0.8819339999463409, 0.9003721999470145, 0.9153145999880508, 0.9314722999697551, 0.9482179000042379, 0.9648006999632344, 0.9807954999851063, 0.9996117999544367, 1.015462200040929, 1.0324568999931216, 1.0484815000090748, 1.065319100045599, 1.0815407000482082, 1.0983708000276238, 1.1151750000426546, 1.132945999968797, 1.1489159000338987, 1.1668766000075266, 1.1811494999565184, 1.200149100041017, 1.2150987000204623]
testtrial;16;0;0;1;False;1000;False;;8;10.547788841636178;drag;L;nan;nan;0;nan;nan;0.0022179000079631805;0.002359100035391748;1684225785.5138094;1684225785.53126;1684225786.2687418;1684225786.2687418;1684225786.2699342;1684225786.2718503;[];[];[]
testtrial;16;0;0;1;False;1000;True;;8;-109.29870767076603;drag;L;-3.1748307;-6.4063544;0;-116.36;7.15;1.234503100044094;1.234593000030145;1684225786.8515458;1684225786.8642917;1684225787.6171415;1684225788.1187587;1684225789.0998104;1684225790.3347845;[0.0, 0.0, 0.0, 0.0, 0.0, 0.0, 0.0, 0.0, 0.0, 0.0, 0.0, 0.0, 0.0, 0.0, 0.0, 0.0, 0.0, 0.0, 0.0, 0.0, 0.0, 0.0, 0.0, 0.0, 0.0, 0.0, 0.0, 0.0, -0.4535472, -0.79370767, -0.9921345, -1.1622148, -1.332295, -1.417335, -1.5307219, -1.5874153, -1.6441087, -1.6724553, -1.7008021, -1.7291489, -1.7291489, -1.7291489, -1.7291489, -1.7291489, -1.7574955, -1.7858423, -1.7858423, -1.8708823, -2.0409625, -2.3244295, -2.57955, -2.8630168, -2.9764037, -3.0330973, -3.0897903, -3.1181371, -3.146484, -3.146484, -3.1748307, -3.1748307, -3.1748307, -3.1748307, -3.1748307, -3.1748307, -3.1748307, -3.1748307, -3.1748307, -3.1748307, -3.1748307, -3.1748307, -3.1748307, -3.1748307, -3.1748307, -3.1748307];[0.0, 0.0, 0.0, 0.0, 0.0, 0.0, 0.0, 0.0, 0.0, 0.0, 0.0, 0.0, 0.0, 0.0, 0.0, 0.0, 0.0, 0.0, 0.0, 0.0, 0.0, 0.0, 0.0, 0.0, 0.0, 0.0, 0.0, 0.0, -1.8141888, -3.0330973, -3.7417645, -4.252005, -4.733899, -4.932326, -5.130753, -5.2441397, -5.300833, -5.32918, -5.3858733, -5.41422, -5.4425664, -5.4709134, -5.527607, -5.5843005, -5.6409936, -5.697687, -5.7260337, -5.8394203, -5.981154, -6.1228876, -6.2362742, -6.321315, -6.378008, -6.378008, -6.4063544, -6.4063544, -6.4063544, -6.4063544, -6.4063544, -6.4063544, -6.4063544, -6.4063544, -6.4063544, -6.4063544, -6.4063544, -6.4063544, -6.4063544, -6.4063544, -6.4063544, -6.4063544, -6.4063544, -6.4063544, -6.4063544, -6.4063544];[0.003857300034724176, 0.01900780003052205, 0.03429620002862066, 0.05193329998292029, 0.06828290002886206, 0.08546370000112802, 0.1016003000549972, 0.11881560005713254, 0.13480630004778504, 0.15178800001740456, 0.168430499965325, 0.1858986000297591, 0.20151489996351302, 0.21828969998750836, 0.23482859996147454, 0.2524088000645861, 0.2699251000303775, 0.2846502000465989, 0.3020301000215113, 0.31808630004525185, 0.33489010005723685, 0.35202790005132556, 0.3687567999586463, 0.38489880005363375, 0.4015767000382766, 0.4192982000531629, 0.4358103000558913, 0.45273929997347295, 0.4712532999692485, 0.4855324999662116, 0.5008808999555185, 0.518640200025402, 0.5347450999543071, 0.5522944000549614, 0.5691360000055283, 0.5855522999772802, 0.6019991000648588, 0.6203758000629023, 0.6354896000120789, 0.6567395000020042, 0.6698773000389338, 0.6866108999820426, 0.7025178000330925, 0.7195384000660852, 0.7365541000617668, 0.7522819000296295, 0.7683940000133589, 0.7878105000127107, 0.8016395999584347, 0.8195511000230908, 0.8351441000122577, 0.852359400014393, 0.8691591999959201, 0.8862275000428781, 0.9020218000514433, 0.9204659999813884, 0.9351132999872789, 0.9537393000209704, 0.9691258000675589, 0.9859895999543369, 1.002142500015907, 1.0190443999599665, 1.0350687999743968, 1.0529414999764413, 1.0683925000485033, 1.0869764999952167, 1.1026987000368536, 1.1200616999994963, 1.136064099962823, 1.1531610999954864, 1.168976900051348, 1.1871244000503793, 1.2020528999855742, 1.2201903000241145]
testtrial;17;0;0;1;False;3000;True;;8;54.25137721534692;drag;L;4.422086;6.292968;0;54.9;7.69;1.1006460000062361;1.1007444000570104;1684225791.1216497;1684225791.1306903;1684225791.8867536;1684225792.3868167;1684225795.3847363;1684225796.485658;[0.0, 0.0, 0.0, 0.0, 0.0, 0.0, 0.0, 0.0, 0.0, 0.0, 0.0, 0.0, 0.0, 0.0, 0.0, 0.0, 0.0, 0.0, 0.0, 0.0, 0.0, 0.0, 0.0, 0.0, 0.0, 1.2189082, 1.8141888, 2.3244295, 2.948057, 3.146484, 3.3732576, 3.4582977, 3.514991, 3.5716846, 3.5716846, 3.6000311, 3.6000311, 3.6283777, 3.6567245, 3.713418, 3.911845, 3.996885, 4.081925, 4.166965, 4.252005, 4.2803516, 4.337045, 4.365392, 4.3937387, 4.3937387, 4.422086, 4.422086, 4.422086, 4.422086, 4.422086, 4.422086, 4.422086, 4.422086, 4.422086, 4.422086, 4.422086, 4.422086, 4.422086, 4.422086, 4.422086, 4.422086];[0.0, 0.0, 0.0, 0.0, 0.0, 0.0, 0.0, 0.0, 0.0, 0.0, 0.0, 0.0, 0.0, 0.0, 0.0, 0.0, 0.0, 0.0, 0.0, 0.0, 0.0, 0.0, 0.0, 0.0, 0.0, 2.012616, 2.8913634, 3.4582977, 4.081925, 4.365392, 4.5921655, 4.7055526, 4.7905927, 4.847286, 4.875633, 4.9039793, 4.932326, 4.960673, 5.045713, 5.1591, 5.4425664, 5.612647, 5.7260337, 5.8394203, 5.981154, 6.037847, 6.1228876, 6.1795807, 6.1795807, 6.2079277, 6.2362742, 6.2362742, 6.264621, 6.292968, 6.292968, 6.292968, 6.292968, 6.292968, 6.292968, 6.292968, 6.292968, 6.292968, 6.292968, 6.292968, 6.292968, 6.292968];[0.004275099956430495, 0.016843699966557324, 0.036495600012131035, 0.05189350002910942, 0.06683470006100833, 0.08283289999235421, 0.09983179997652769, 0.1170626999810338, 0.13491629995405674, 0.15079860005062073, 0.16764690005220473, 0.18659589998424053, 0.20206909999251366, 0.21863889996893704, 0.23594929999671876, 0.2504199000541121, 0.2689799000509083, 0.2846790000330657, 0.301612599985674, 0.3177684999536723, 0.3347170000197366, 0.35166749998461455, 0.3691114999819547, 0.3835275999736041, 0.4013929000357166, 0.41702429996803403, 0.43362929997965693, 0.45038170006591827, 0.4668525999877602, 0.4837833000347018, 0.5003080000169575, 0.5163916000165045, 0.5336261000484228, 0.5504961999831721, 0.5678848000243306, 0.5833417000249028, 0.6017201000358909, 0.6175431000301614, 0.6341180000454187, 0.6503771999850869, 0.6693436000496149, 0.6832935999846086, 0.7003176000434905, 0.7166843999875709, 0.7338885000208393, 0.7512399000115693, 0.7671817999798805, 0.7836594999535009, 0.8022891000146046, 0.8162280999822542, 0.834984999964945, 0.8512180000543594, 0.867374400026165, 0.8841168000362813, 0.9006056999787688, 0.9165608000475913, 0.9347053000237793, 0.9499852999579161, 0.9690941000590101, 0.9821741000050679, 1.0016958999913186, 1.0167870000004768, 1.0351968000177294, 1.0509148000273854, 1.0685882000252604, 1.0831645999569446]
testtrial;18;0;0;1;False;1000;True;;8;-39.23574258975709;drag;L;6.774862;-5.130753;0;-37.14;8.5;1.2174471000907943;1.2175527999643236;1684225797.3023522;1684225797.3133335;1684225798.067568;1684225798.5677032;1684225799.550664;1684225800.7680864;[0.0, 0.0, 0.0, 0.0, 0.0, 0.0, 0.0, 0.0, 0.0, 0.0, 0.0, 0.0, 0.0, 0.0, 0.0, 0.0, 0.0, 0.0, 0.0, 0.0, 0.0, 0.0, 0.0, 0.0, 0.0, 0.0, 0.0, 0.0, 0.0, 0.0, 0.0, 0.0, 1.3889884, 2.466163, 3.713418, 4.2803516, 4.6772056, 4.875633, 4.9890194, 5.045713, 5.0740595, 5.1024065, 5.130753, 5.1591, 5.1874466, 5.2441397, 5.300833, 5.3575263, 5.41422, 5.527607, 5.612647, 5.811074, 6.0095005, 6.321315, 6.4630475, 6.5764346, 6.633128, 6.7181687, 6.7465153, 6.774862, 6.774862, 6.774862, 6.774862, 6.774862, 6.774862, 6.774862, 6.774862, 6.774862, 6.774862, 6.774862, 6.774862, 6.774862, 6.774862];[0.0, 0.0, 0.0, 0.0, 0.0, 0.0, 0.0, 0.0, 0.0, 0.0, 0.0, 0.0, 0.0, 0.0, 0.0, 0.0, 0.0, 0.0, 0.0, 0.0, 0.0, 0.0, 0.0, 0.0, 0.0, 0.0, 0.0, 0.0, 0.0, 0.0, 0.0, 0.0, -1.2472548, -2.2677362, -3.2598708, -3.713418, -4.0535784, -4.2236586, -4.3086987, -4.365392, -4.365392, -4.3937387, -4.422086, -4.4504323, -4.478779, -4.5071254, -4.563819, -4.5921655, -4.620512, -4.648859, -4.7055526, -4.7905927, -4.847286, -4.960673, -5.045713, -5.0740595, -5.1024065, -5.130753, -5.130753, -5.130753, -5.130753, -5.130753, -5.130753, -5.130753, -5.130753, -5.130753, -5.130753, -5.130753, -5.130753, -5.130753, -5.130753, -5.130753, -5.130753];[0.0041371999541297555, 0.01828449999447912, 0.03334739990532398, 0.05141429998911917, 0.06758149992674589, 0.08461429993622005, 0.1026835999218747, 0.11849249992519617, 0.13325129996519536, 0.1516063999151811, 0.16792199993506074, 0.18848879996221513, 0.2012932999059558, 0.21856009995099157, 0.23458529997151345, 0.25268739997409284, 0.2677932999795303, 0.28562729991972446, 0.3008040999993682, 0.3187671999912709, 0.3350972000043839, 0.3521134000038728, 0.36773539998102933, 0.38576949993148446, 0.4022431999910623, 0.41921059996820986, 0.4346782999346033, 0.451436199946329, 0.46572579990606755, 0.48402279999572784, 0.5003683000104502, 0.5196949999080971, 0.5339717000024393, 0.550020799972117, 0.5702444999478757, 0.5848675000015646, 0.6005336999660358, 0.6184427000116557, 0.6343971999594942, 0.6517178999492899, 0.6678040999686345, 0.6862002999987453, 0.702455599908717, 0.7192996999947354, 0.734709499985911, 0.751589999999851, 0.7676008999114856, 0.7848181999288499, 0.8007415999891236, 0.8173939000116661, 0.8341398999327794, 0.8504945999011397, 0.8670175999868661, 0.8859606999903917, 0.9014047000091523, 0.9190143999876454, 0.9345932999858633, 0.9499703999608755, 0.9679089999990538, 0.9838925999356434, 1.0004348999354988, 1.0178584000095725, 1.033530000015162, 1.051409799954854, 1.0683067999780178, 1.0852593999588862, 1.1026593999704346, 1.1194104999303818, 1.135644399910234, 1.1527958000078797, 1.1683753000106663, 1.1857274000067264, 1.2005660999566317]
testtrial;19;0;0;1;False;3000;True;;8;47.008376247818994;drag;L;5.4425664;5.896114;0;47.29;8.02;1.1988141000038013;1.1988958000438288;1684225801.49381;1684225801.5130892;1684225802.2658112;1684225802.7695677;1684225805.7670748;1684225806.9660065;[0.0, 0.0, 0.0, 0.0, 0.0, 0.0, 0.0, 0.0, 0.0, 0.0, 0.0, 0.0, 0.0, 0.0, 0.0, 0.0, 0.0, 0.0, 0.0, 0.0, 0.0, 0.0, 0.0, 0.0, 0.0, 0.0, 0.0, 0.0, 0.0, 1.5023751, 1.9275757, 2.4094696, 2.8063235, 2.948057, 3.0897903, 3.1748307, 3.2315238, 3.2598708, 3.2882173, 3.3449106, 3.4582977, 3.6000311, 3.7417645, 3.968538, 4.110272, 4.3086987, 4.5354724, 4.7055526, 4.7905927, 4.847286, 4.9039793, 4.960673, 4.9890194, 5.0740595, 5.130753, 5.1874466, 5.2724867, 5.32918, 5.3575263, 5.41422, 5.4425664, 5.4425664, 5.4425664, 5.4425664, 5.4425664, 5.4425664, 5.4425664, 5.4425664, 5.4425664, 5.4425664, 5.4425664, 5.4425664];[0.0, 0.0, 0.0, 0.0, 0.0, 0.0, 0.0, 0.0, 0.0, 0.0, 0.0, 0.0, 0.0, 0.0, 0.0, 0.0, 0.0, 0.0, 0.0, 0.0, 0.0, 0.0, 0.0, 0.0, 0.0, 0.0, 0.0, 0.0, 0.0, 2.1543493, 2.7496302, 3.2031772, 3.6283777, 3.798458, 3.9401915, 3.996885, 4.081925, 4.081925, 4.166965, 4.1953115, 4.3086987, 4.422086, 4.563819, 4.762246, 4.9039793, 5.045713, 5.2441397, 5.3858733, 5.4425664, 5.4709134, 5.527607, 5.5559535, 5.5843005, 5.612647, 5.6409936, 5.697687, 5.7260337, 5.782727, 5.811074, 5.8677673, 5.8677673, 5.896114, 5.896114, 5.896114, 5.896114, 5.896114, 5.896114, 5.896114, 5.896114, 5.896114, 5.896114, 5.896114];[0.004451500019058585, 0.017778299981728196, 0.034085400053299963, 0.05017010006122291, 0.06862819998059422, 0.0833445000462234, 0.10295830003451556, 0.11725969996768981, 0.134939800016582, 0.15232710004784167, 0.16983060003258288, 0.18438089999835938, 0.2013996000168845, 0.21700499998405576, 0.23411209997721016, 0.24981349997688085, 0.2672099999617785, 0.2835196000523865, 0.3005596000002697, 0.31697509996593, 0.3348619999596849, 0.349729000008665, 0.36733410006854683, 0.3830302000278607, 0.4003330999985337, 0.4173937999876216, 0.43422679998911917, 0.4504898999584839, 0.4679414000129327, 0.4842231000075117, 0.5011155999964103, 0.5160293000517413, 0.5345171999651939, 0.5508357000071555, 0.568318200064823, 0.5831023000646383, 0.6025405999971554, 0.6165291999932379, 0.6348052000394091, 0.6503473999910057, 0.6678544000023976, 0.6841234000166878, 0.7004032999975607, 0.7157682999968529, 0.7347085999790579, 0.7499279000330716, 0.7664202000014484, 0.7859728999901563, 0.7995253000408411, 0.8162195000331849, 0.8335436000488698, 0.8503670999780297, 0.868958399980329, 0.8834329000674188, 0.9021483999677002, 0.9184847000287846, 0.9345153999747708, 0.9505587000166997, 0.9688794000539929, 0.9843907000031322, 1.0017659000586718, 1.0169082999927923, 1.0352467000484467, 1.0514687000541016, 1.0686017000116408, 1.0837764999596402, 1.1015679000411183, 1.1179434000514448, 1.1347100000130013, 1.1495298000518233, 1.167389899957925, 1.1841611999552697]
testtrial;20;0;0;1;False;3000;True;;8;149.16805709981054;drag;L;-7.2567554;4.2803516;0;149.47;8.43;1.0676161999581382;1.0676723999204114;1684225807.6991892;1684225807.712858;1684225808.4684532;1684225808.9678004;1684225811.9651349;1684225813.0332952;[0.0, 0.0, 0.0, 0.0, 0.0, 0.0, 0.0, 0.0, 0.0, 0.0, 0.0, 0.0, 0.0, 0.0, 0.0, 0.0, 0.0, 0.0, 0.0, 0.0, 0.0, 0.0, 0.0, 0.0, 0.0, 0.0, 0.0, 0.0, 0.0, 0.0, -2.948057, -4.365392, -5.5559535, -6.491395, -6.8032084, -6.9165955, -7.029982, -7.086675, -7.1150217, -7.143369, -7.143369, -7.143369, -7.143369, -7.143369, -7.1717157, -7.1717157, -7.2000623, -7.228409, -7.228409, -7.2567554, -7.2567554, -7.2567554, -7.2567554, -7.2567554, -7.2567554, -7.2567554, -7.2567554, -7.2567554, -7.2567554, -7.2567554, -7.2567554, -7.2567554, -7.2567554, -7.2567554];[0.0, 0.0, 0.0, 0.0, 0.0, 0.0, 0.0, 0.0, 0.0, 0.0, 0.0, 0.0, 0.0, 0.0, 0.0, 0.0, 0.0, 0.0, 0.0, 0.0, 0.0, 0.0, 0.0, 0.0, 0.0, 0.0, 0.0, 0.0, 0.0, 0.0, 2.1260026, 3.146484, 3.798458, 4.110272, 4.1953115, 4.2236586, 4.252005, 4.252005, 4.2803516, 4.2803516, 4.2803516, 4.2803516, 4.2803516, 4.2803516, 4.2803516, 4.2803516, 4.2803516, 4.2803516, 4.2803516, 4.2803516, 4.2803516, 4.2803516, 4.2803516, 4.2803516, 4.2803516, 4.2803516, 4.2803516, 4.2803516, 4.2803516, 4.2803516, 4.2803516, 4.2803516, 4.2803516, 4.2803516];[0.003584599937312305, 0.017741799936629832, 0.03463999996893108, 0.0536324999993667, 0.06902169995009899, 0.08479639992583543, 0.10191229998599738, 0.11922229989431798, 0.13511569995898753, 0.1515398999908939, 0.17138949991203845, 0.1848498999606818, 0.20335259998682886, 0.2176557999337092, 0.23669219994917512, 0.25393699994310737, 0.2701645999914035, 0.2855628998950124, 0.3041006999555975, 0.32163979997858405, 0.33717369998339564, 0.3548128999536857, 0.37065689999144524, 0.38745039992500097, 0.4027827999088913, 0.41875869990326464, 0.43696329998783767, 0.4521419999655336, 0.4702636000001803, 0.48576609999872744, 0.5021999999880791, 0.5180834999773651, 0.5340312999906018, 0.5512887999648228, 0.5694078999804333, 0.5844139999244362, 0.6034314999124035, 0.618305999902077, 0.6361057999311015, 0.652492499910295, 0.6692634999053553, 0.6849270999664441, 0.7043564999476075, 0.7180252999532968, 0.7356601998908445, 0.7507150999736041, 0.7674967999337241, 0.7832360999891534, 0.8020727999974042, 0.8176464999560267, 0.8353591999039054, 0.8499768999172375, 0.8676975999260321, 0.8847007999429479, 0.9027522999094799, 0.9192573999753222, 0.9359516999684274, 0.9515380999073386, 0.9696147999493405, 0.9847181999357417, 1.00334189995192, 1.0186685998924077, 1.0350713999941945, 1.0518146998947486]
testtrial;21;0;0;1;False;1000;True;;8;-136.15747948068548;drag;L;-5.215793;-5.300833;0;-134.54;7.44;1.1997495000250638;1.1998560000211;1684225813.7269025;1684225813.74566;1684225814.49972;1684225815.0015886;1684225815.9812853;1684225817.1812866;[0.0, 0.0, 0.0, 0.0, 0.0, 0.0, 0.0, 0.0, 0.0, 0.0, 0.0, 0.0, 0.0, 0.0, 0.0, 0.0, 0.0, 0.0, 0.0, 0.0, 0.0, 0.0, 0.0, 0.0, 0.0, 0.0, 0.0, 0.0, 0.0, -0.2267736, -1.5590686, -2.211043, -2.66459, -3.316564, -3.6567245, -3.911845, -4.081925, -4.1953115, -4.2803516, -4.337045, -4.365392, -4.365392, -4.3937387, -4.3937387, -4.3937387, -4.3937387, -4.3937387, -4.3937387, -4.3937387, -4.3937387, -4.422086, -4.478779, -4.6772056, -4.875633, -5.017366, -5.0740595, -5.130753, -5.1591, -5.1874466, -5.215793, -5.215793, -5.215793, -5.215793, -5.215793, -5.215793, -5.215793, -5.215793, -5.215793, -5.215793, -5.215793, -5.215793, -5.215793];[0.0, 0.0, 0.0, 0.0, 0.0, 0.0, 0.0, 0.0, 0.0, 0.0, 0.0, 0.0, 0.0, 0.0, 0.0, 0.0, 0.0, 0.0, 0.0, 0.0, 0.0, 0.0, 0.0, 0.0, 0.0, 0.0, 0.0, 0.0, 0.0, -0.42520052, -2.2393894, -3.0047503, -3.5433376, -4.1386185, -4.422086, -4.620512, -4.7055526, -4.7905927, -4.847286, -4.875633, -4.875633, -4.9039793, -4.9039793, -4.932326, -4.932326, -4.932326, -4.932326, -4.932326, -4.932326, -4.932326, -4.960673, -4.9890194, -5.0740595, -5.1874466, -5.215793, -5.2441397, -5.2724867, -5.2724867, -5.300833, -5.300833, -5.300833, -5.300833, -5.300833, -5.300833, -5.300833, -5.300833, -5.300833, -5.300833, -5.300833, -5.300833, -5.300833, -5.300833];[0.0038674999959766865, 0.018937100074253976, 0.035344600095413625, 0.052546999999322, 0.06841870001517236, 0.0856340000173077, 0.10403210006188601, 0.12099580001085997, 0.1334030000725761, 0.15140800003428012, 0.1674123000120744, 0.18810710008256137, 0.20242790004704148, 0.21968350000679493, 0.2367153000086546, 0.253771600080654, 0.2694429000839591, 0.28747950005345047, 0.3026065001031384, 0.3196616000495851, 0.3354151000967249, 0.35285440005827695, 0.36941859999205917, 0.3872776000062004, 0.40314280008897185, 0.41923330002464354, 0.4360922999912873, 0.4525772000197321, 0.46866190002765507, 0.4864854000043124, 0.5026375000597909, 0.5202263999963179, 0.5351619001012295, 0.5529159000143409, 0.5694857999915257, 0.5863015000941232, 0.601681400090456, 0.6194383000256494, 0.635768000036478, 0.6534533000085503, 0.6691587000386789, 0.6857744000153616, 0.7027556000975892, 0.7196977999992669, 0.7359743000706658, 0.7525033000856638, 0.7685121000977233, 0.7856155000627041, 0.8019421000499278, 0.8190560000948608, 0.8362750000087544, 0.8526398000540212, 0.8690801000921056, 0.8882539999904111, 0.9030131000326946, 0.9201919999904931, 0.9356020000996068, 0.952909899991937, 0.9685499999905005, 0.9860056000761688, 1.0020905000856146, 1.0190417000558227, 1.0345433000475168, 1.0527717000804842, 1.068136600079015, 1.0866064000874758, 1.1026810000184923, 1.1197394999908283, 1.1352223000722006, 1.1541848999913782, 1.1688916001003236, 1.1863373999949545]
testtrial;22;0;0;1;False;3000;True;;8;-158.92860167503224;drag;L;-7.1717157;-4.2236586;0;-149.5;8.32;1.6822942999424413;1.6823628999991342;1684225817.8698053;1684225817.879477;1684225818.6330483;1684225819.1355278;1684225822.1333084;1684225823.8151934;[0.0, 0.0, 0.0, 0.0, 0.0, 0.0, 0.0, 0.0, 0.0, 0.0, 0.0, 0.0, 0.0, 0.0, 0.0, 0.0, 0.0, 0.0, 0.0, 0.0, 0.0, 0.0, 0.0, 0.0, 0.0, 0.0, 0.0, 0.0, 0.0, 0.0, 0.0, 0.0, 0.0, 0.0, 0.0, 0.0, 0.0, -0.0566934, -0.1700802, -0.48189393, -0.6803208, -0.9070944, -1.1055214, -1.1905615, -1.2756016, -1.3606416, -1.417335, -1.4456817, -1.5023751, -1.5307219, -1.6441087, -1.7291489, -1.899229, -2.1543493, -2.8630168, -5.2724867, -5.981154, -6.4630475, -7.029982, -7.2567554, -7.483529, -7.5685697, -7.6252627, -7.681956, -7.710303, -7.710303, -7.7386494, -7.7669964, -7.7669964, -7.795343, -7.8520365, -7.880383, -7.937076, -7.9654226, -7.99377, -7.99377, -7.99377, -7.937076, -7.8520365, -7.7386494, -7.6536093, -7.5685697, -7.4551826, -7.3701425, -7.313449, -7.285102, -7.228409, -7.2000623, -7.2000623, -7.2000623, -7.1717157, -7.1717157, -7.1717157, -7.1717157, -7.1717157, -7.1717157, -7.1717157, -7.1717157, -7.1717157, -7.1717157, -7.1717157];[0.0, 0.0, 0.0, 0.0, 0.0, 0.0, 0.0, 0.0, 0.0, 0.0, 0.0, 0.0, 0.0, 0.0, 0.0, 0.0, 0.0, 0.0, 0.0, 0.0, 0.0, 0.0, 0.0, 0.0, 0.0, 0.0, 0.0, 0.0, 0.0, 0.0, 0.0, 0.0, 0.0, 0.0, 0.0, 0.0, 0.0, -0.0283467, -0.28346702, -0.76536095, -1.1055214, -1.3606416, -1.5874153, -1.6724553, -1.7858423, -1.8425356, -1.8708823, -1.9275757, -1.9559225, -2.012616, -2.0976558, -2.211043, -2.3244295, -2.4945097, -2.9764037, -4.365392, -4.563819, -4.648859, -4.875633, -5.017366, -5.130753, -5.1874466, -5.215793, -5.215793, -5.215793, -5.215793, -5.215793, -5.215793, -5.215793, -5.1874466, -5.130753, -5.017366, -4.9039793, -4.847286, -4.7905927, -4.762246, -4.7055526, -4.620512, -4.563819, -4.5071254, -4.478779, -4.4504323, -4.3937387, -4.365392, -4.337045, -4.3086987, -4.2803516, -4.252005, -4.252005, -4.252005, -4.2236586, -4.2236586, -4.2236586, -4.2236586, -4.2236586, -4.2236586, -4.2236586, -4.2236586, -4.2236586, -4.2236586, -4.2236586];[0.00413649994879961, 0.017648399923928082, 0.03600839991122484, 0.05225439998321235, 0.06867639999836683, 0.08428329997695982, 0.1019527999451384, 0.11727629997767508, 0.1359635000117123, 0.1512697999132797, 0.16810040001291782, 0.18373869999777526, 0.2011378000024706, 0.21607620001304895, 0.23415309994015843, 0.2503575999289751, 0.26799079996999353, 0.28624970000237226, 0.3008366000140086, 0.31655949994456023, 0.3339467999758199, 0.34938859997782856, 0.3676666999235749, 0.3829167999792844, 0.4011723999865353, 0.41674709995277226, 0.43358199996873736, 0.4491562999319285, 0.46771220001392066, 0.4831575999269262, 0.5012176999589428, 0.5155697999289259, 0.5338283999590203, 0.5498188999481499, 0.5673595999833196, 0.5840301999123767, 0.6001912999199703, 0.6163234999403358, 0.6341496999375522, 0.649577199947089, 0.6681208999361843, 0.6841470999643207, 0.7000641999766231, 0.7173802999313921, 0.7338946999516338, 0.7496423999546096, 0.7683717999607325, 0.7847797999856994, 0.800188299966976, 0.8158160999882966, 0.8341067999135703, 0.8507748999400064, 0.867756399908103, 0.8831697999266908, 0.901777199935168, 0.9172415999928489, 0.9354143999516964, 0.9511206999886781, 0.9676298999693245, 0.9844665999989957, 1.0012457999400795, 1.0166775999823585, 1.0341326999478042, 1.049777299980633, 1.0683169999392703, 1.0833550000097603, 1.1008225999539718, 1.117747199954465, 1.1345738999079913, 1.151096299989149, 1.1676424999022856, 1.1825660999165848, 1.202724999981001, 1.2170187999727204, 1.2346736999461427, 1.2507288999622688, 1.266772700008005, 1.283642099937424, 1.3025341999018565, 1.317388299969025, 1.3362613999051973, 1.3499202999519184, 1.3671130000147969, 1.3839934999123216, 1.4008247999008745, 1.4167690000031143, 1.4365065000019968, 1.4512128999922425, 1.4685727999312803, 1.4852902999846265, 1.5008486999431625, 1.5168005999876186, 1.53554129996337, 1.550561200012453, 1.5694121000124142, 1.5848346999846399, 1.6025792999425903, 1.6187869999557734, 1.634933999972418, 1.651885199942626, 1.6680339999729767]
testtrial;23;0;0;1;False;1000;True;;8;-159.7812181151073;drag;L;-7.3984895;-3.3449106;0;-155.67;8.12;1.1982803998980671;1.1983613000484183;1684225824.5855541;1684225824.594709;1684225825.3495736;1684225825.8519955;1684225826.8321195;1684225828.0308685;[0.0, 0.0, 0.0, 0.0, 0.0, 0.0, 0.0, 0.0, 0.0, 0.0, 0.0, 0.0, 0.0, 0.0, 0.0, 0.0, 0.0, 0.0, 0.0, 0.0, 0.0, 0.0, 0.0, 0.0, 0.0, 0.0, 0.0, -0.56693405, -1.1905615, -2.2677362, -2.8063235, -3.2031772, -3.5716846, -3.911845, -4.081925, -4.3086987, -4.422086, -4.5354724, -4.5921655, -4.648859, -4.7055526, -4.847286, -4.932326, -5.1024065, -5.2441397, -5.4425664, -5.8394203, -6.1228876, -6.321315, -6.5764346, -6.6614747, -6.8032084, -6.8599014, -6.944942, -7.029982, -7.086675, -7.1717157, -7.285102, -7.313449, -7.3984895, -7.3984895, -7.3984895, -7.3984895, -7.3984895, -7.3984895, -7.3984895, -7.3984895, -7.3984895, -7.3984895, -7.3984895, -7.3984895, -7.3984895];[0.0, 0.0, 0.0, 0.0, 0.0, 0.0, 0.0, 0.0, 0.0, 0.0, 0.0, 0.0, 0.0, 0.0, 0.0, 0.0, 0.0, 0.0, 0.0, 0.0, 0.0, 0.0, 0.0, 0.0, 0.0, 0.0, 0.0, -0.7086675, -1.2472548, -2.1260026, -2.4945097, -2.6362433, -2.7212832, -2.7212832, -2.7496302, -2.7779768, -2.7779768, -2.7779768, -2.7779768, -2.7779768, -2.7779768, -2.7779768, -2.7779768, -2.7779768, -2.8063235, -2.83467, -2.8913634, -2.9197102, -2.9764037, -3.0330973, -3.0614438, -3.0897903, -3.0897903, -3.1181371, -3.146484, -3.2031772, -3.2598708, -3.316564, -3.316564, -3.3449106, -3.3449106, -3.3449106, -3.3449106, -3.3449106, -3.3449106, -3.3449106, -3.3449106, -3.3449106, -3.3449106, -3.3449106, -3.3449106, -3.3449106];[0.0036460000555962324, 0.018636099994182587, 0.03461309999693185, 0.05217150005046278, 0.06741330004297197, 0.08589720004238188, 0.09952309995424002, 0.11710509995464236, 0.13361619994975626, 0.15294599998742342, 0.16540010005701333, 0.18390800000634044, 0.1999089999590069, 0.21838650002609938, 0.2348964000120759, 0.2520706000505015, 0.26806499995291233, 0.2854476999491453, 0.30153719999361783, 0.3185376999899745, 0.3352117999456823, 0.3531220000004396, 0.3682447000173852, 0.38659899996127933, 0.4014449999667704, 0.4183832999551669, 0.4359762000385672, 0.45239310001488775, 0.4676485999953002, 0.487602400011383, 0.5017178000416607, 0.5173413000302389, 0.53391370002646, 0.5515511999838054, 0.5681455000303686, 0.5849591000005603, 0.60110990004614, 0.6205787999788299, 0.6340918999630958, 0.6518425999674946, 0.6676244999980554, 0.6851012000115588, 0.7014862999785691, 0.7195993999484926, 0.7346104000462219, 0.7530129000078887, 0.7681223000399768, 0.7850042999489233, 0.8008388000307605, 0.8183567000087351, 0.8348015999654308, 0.8531189999775961, 0.8672755999723449, 0.8869567000074312, 0.9007674000458792, 0.9192781000165269, 0.9345985000254586, 0.9515610999660566, 0.9679122000234202, 0.9854343000333756, 0.9999508999753743, 1.017545299953781, 1.034282400039956, 1.0521906999638304, 1.066689100000076, 1.0846198999788612, 1.1011198000051081, 1.1193263999884948, 1.1352091999724507, 1.1535763000138104, 1.1676601000363007, 1.1854501999914646]
testtrial;24;0;0;1;False;3000;True;;8;142.1804144320913;drag;L;-6.944942;4.563819;0;146.69;8.31;1.0673445999855176;1.0674357999814674;1684225828.8127801;1684225828.828512;1684225829.5828407;1684225830.0844243;1684225833.0815277;1684225834.149288;[0.0, 0.0, 0.0, 0.0, 0.0, 0.0, 0.0, 0.0, 0.0, 0.0, 0.0, 0.0, 0.0, 0.0, 0.0, 0.0, 0.0, 0.0, 0.0, 0.0, 0.0, 0.0, 0.0, 0.0, 0.0, 0.0, 0.0, 0.0, -2.3527763, -3.5716846, -4.7055526, -5.3575263, -5.924461, -6.3496614, -6.633128, -6.6614747, -6.7465153, -6.774862, -6.8032084, -6.831555, -6.831555, -6.8599014, -6.8599014, -6.8599014, -6.8599014, -6.8599014, -6.8599014, -6.888248, -6.9165955, -6.944942, -6.944942, -6.944942, -6.944942, -6.944942, -6.944942, -6.944942, -6.944942, -6.944942, -6.944942, -6.944942, -6.944942, -6.944942, -6.944942, -6.944942];[0.0, 0.0, 0.0, 0.0, 0.0, 0.0, 0.0, 0.0, 0.0, 0.0, 0.0, 0.0, 0.0, 0.0, 0.0, 0.0, 0.0, 0.0, 0.0, 0.0, 0.0, 0.0, 0.0, 0.0, 0.0, 0.0, 0.0, 0.0, 1.3889884, 1.8425356, 2.2393894, 2.5512033, 2.9764037, 3.4016042, 3.6000311, 3.6567245, 3.6567245, 3.6850712, 3.6850712, 3.713418, 3.713418, 3.7417645, 3.7417645, 3.770111, 3.770111, 3.798458, 3.9401915, 4.2236586, 4.365392, 4.422086, 4.478779, 4.5071254, 4.5354724, 4.5354724, 4.563819, 4.563819, 4.563819, 4.563819, 4.563819, 4.563819, 4.563819, 4.563819, 4.563819, 4.563819];[0.003575199982151389, 0.0176026999251917, 0.034557399922050536, 0.05014910001773387, 0.06792619999032468, 0.08413209998980165, 0.10214229999110103, 0.11723149998579174, 0.1351705000270158, 0.15124059992376715, 0.16759660001844168, 0.1857890000101179, 0.20113810000475496, 0.21668549999594688, 0.23399390000849962, 0.250185800017789, 0.26974100002553314, 0.28331029997207224, 0.30049850000068545, 0.31661849992815405, 0.33409269992262125, 0.34973779995925725, 0.3673805999569595, 0.38350659993011504, 0.401266900007613, 0.4159801999339834, 0.4343176999827847, 0.4504106999374926, 0.46748819993808866, 0.48464059992693365, 0.503370999940671, 0.5181487000081688, 0.5370791000314057, 0.5513050999725237, 0.5695320999948308, 0.5855066999793053, 0.6016788999550045, 0.6171766000334173, 0.6351332999765873, 0.6508305999450386, 0.669225399964489, 0.6837067999877036, 0.7008199000265449, 0.7167273999657482, 0.7339946000138298, 0.7505943999858573, 0.7693489999510348, 0.7853354000253603, 0.8021395999239758, 0.8182261999463663, 0.8346322999568656, 0.8517884999746457, 0.8693406999809667, 0.8847224999917671, 0.9026305000297725, 0.9171146999578923, 0.9344120000023395, 0.9513952999841422, 0.9690398999955505, 0.985534799983725, 1.0033985000336543, 1.0171699000056833, 1.0353702999418601, 1.0501246999483556]
testtrial;25;0;0;1;False;1000;True;;8;97.9668253388792;drag;L;-1.0204812;7.8520365;0;97.4;7.92;1.301239800057374;1.3013069999869913;1684225834.8815014;1684225834.89388;1684225835.6471286;1684225836.1487074;1684225837.129772;1684225838.4316258;[0.0, 0.0, 0.0, 0.0, 0.0, 0.0, 0.0, 0.0, 0.0, 0.0, 0.0, 0.0, 0.0, 0.0, 0.0, 0.0, 0.0, 0.0, 0.0, 0.0, 0.0, 0.0, 0.0, 0.0, 0.0, 0.0, 0.0, 0.0, 0.0, 0.0, 0.0, -1.2756016, -1.7574955, -1.9559225, -1.984269, -2.012616, -2.012616, -2.012616, -1.984269, -1.9559225, -1.8425356, -1.7291489, -1.5874153, -1.4456817, -1.2472548, -1.1055214, -1.0488279, -1.0204812, -1.0204812, -0.9921345, -0.96378785, -0.93544114, -0.87874776, -0.8220543, -0.8220543, -0.79370767, -0.79370767, -0.8220543, -0.85040104, -0.85040104, -0.85040104, -0.9070944, -0.9070944, -0.9070944, -0.93544114, -0.96378785, -0.9921345, -1.0204812, -1.0204812, -1.0204812, -1.0204812, -1.0204812, -1.0204812, -1.0204812, -1.0204812, -1.0204812, -1.0204812, -1.0204812];[0.0, 0.0, 0.0, 0.0, 0.0, 0.0, 0.0, 0.0, 0.0, 0.0, 0.0, 0.0, 0.0, 0.0, 0.0, 0.0, 0.0, 0.0, 0.0, 0.0, 0.0, 0.0, 0.0, 0.0, 0.0, 0.0, 0.0, 0.0, 0.0, 0.0, 0.0, 2.83467, 4.0535784, 4.4504323, 4.5354724, 4.563819, 4.563819, 4.620512, 4.6772056, 4.762246, 4.9039793, 4.9890194, 5.1874466, 5.41422, 5.75438, 6.037847, 6.094541, 6.1795807, 6.2079277, 6.2362742, 6.321315, 6.4630475, 6.6047816, 6.7465153, 6.831555, 7.086675, 7.3701425, 7.5118756, 7.596916, 7.6252627, 7.681956, 7.710303, 7.7386494, 7.795343, 7.795343, 7.82369, 7.8520365, 7.8520365, 7.8520365, 7.8520365, 7.8520365, 7.8520365, 7.8520365, 7.8520365, 7.8520365, 7.8520365, 7.8520365, 7.8520365];[0.0035719999577850103, 0.019666200038045645, 0.03554479999002069, 0.05330849997699261, 0.06837620004080236, 0.08637949998956174, 0.10258820001035929, 0.11867500003427267, 0.13514689996372908, 0.1526991999708116, 0.16839509992860258, 0.1884431999642402, 0.20235629996750504, 0.2200789999915287, 0.23625890002585948, 0.25312689994461834, 0.26867100002709776, 0.28682899998966604, 0.3027155000017956, 0.3188792000291869, 0.3350027999840677, 0.3528465999988839, 0.3688590000383556, 0.3846606999868527, 0.4023845000192523, 0.41972340003121644, 0.4366425999905914, 0.45369610004127026, 0.4698012999724597, 0.4867559999693185, 0.5023656999692321, 0.5213109999895096, 0.5362811000086367, 0.5536730999592692, 0.5695288999704644, 0.5878253999399021, 0.6029971999814734, 0.620763499988243, 0.6359716999577358, 0.6528258000034839, 0.6689772999379784, 0.6881261999951676, 0.7035087000112981, 0.7195096999639645, 0.7367332000285387, 0.7539299000054598, 0.7692771999863908, 0.787863599951379, 0.8013063999824226, 0.818769000004977, 0.8363139999564737, 0.852991099935025, 0.8707337999949232, 0.8872949000215158, 0.9028389999875799, 0.9215050999773666, 0.93622100003995, 0.9529804999474436, 0.9705082000000402, 0.9857878999318928, 1.0029288999503478, 1.0199256000341848, 1.034963299985975, 1.0541693000122905, 1.0695821000263095, 1.0866968999616802, 1.1032611000118777, 1.1197989999782294, 1.1358904000371695, 1.1539462000364438, 1.1689150999300182, 1.1858791999984533, 1.2035551000153646, 1.2213998000370339, 1.2352625000057742, 1.2529650999931619, 1.269685799954459, 1.285591799998656]
testtrial;26;0;0;1;False;1000;True;;8;-45.18897009204646;drag;L;5.045713;-5.782727;0;-48.89;7.67;1.2014970000600442;1.2015880000544712;1684225839.26446;1684225839.2776299;1684225840.0310564;1684225840.5326834;1684225841.5136766;1684225842.7148488;[0.0, 0.0, 0.0, 0.0, 0.0, 0.0, 0.0, 0.0, 0.0, 0.0, 0.0, 0.0, 0.0, 0.0, 0.0, 0.0, 0.0, 0.0, 0.0, 0.0, 0.0, 0.0, 0.0, 0.0, 0.0, 0.0, 0.0, 0.0, 0.0, 0.0, 0.0, 1.1905615, 2.4378164, 3.8551514, 4.3937387, 4.7055526, 4.818939, 4.875633, 4.875633, 4.875633, 4.875633, 4.875633, 4.875633, 4.875633, 4.875633, 4.875633, 4.875633, 4.875633, 4.875633, 4.9039793, 4.9039793, 4.960673, 4.9890194, 5.017366, 5.017366, 5.017366, 5.017366, 5.017366, 5.017366, 5.045713, 5.045713, 5.045713, 5.045713, 5.045713, 5.045713, 5.045713, 5.045713, 5.045713, 5.045713, 5.045713, 5.045713, 5.045713];[0.0, 0.0, 0.0, 0.0, 0.0, 0.0, 0.0, 0.0, 0.0, 0.0, 0.0, 0.0, 0.0, 0.0, 0.0, 0.0, 0.0, 0.0, 0.0, 0.0, 0.0, 0.0, 0.0, 0.0, 0.0, 0.0, 0.0, 0.0, 0.0, 0.0, 0.0, -1.2472548, -2.466163, -3.713418, -4.1953115, -4.478779, -4.563819, -4.620512, -4.648859, -4.648859, -4.648859, -4.648859, -4.648859, -4.648859, -4.648859, -4.648859, -4.648859, -4.6772056, -4.6772056, -4.733899, -4.847286, -5.1024065, -5.3575263, -5.527607, -5.612647, -5.66934, -5.7260337, -5.75438, -5.75438, -5.782727, -5.782727, -5.782727, -5.782727, -5.782727, -5.782727, -5.782727, -5.782727, -5.782727, -5.782727, -5.782727, -5.782727, -5.782727];[0.0034063999773934484, 0.01905940007418394, 0.037172800046391785, 0.052052700077183545, 0.06938830006401986, 0.08603270002640784, 0.10276380006689578, 0.11970579996705055, 0.13601889996789396, 0.15314609999768436, 0.1702567000174895, 0.1853296000044793, 0.20166969997808337, 0.21952909999527037, 0.23596820002421737, 0.25325349997729063, 0.2685013000154868, 0.28557339997496456, 0.30152750003617257, 0.31805620004888624, 0.33520660002250224, 0.35317800007760525, 0.36994040000718087, 0.38747139996849, 0.40349880000576377, 0.42113250005058944, 0.43701570003759116, 0.4557133000344038, 0.4689124000724405, 0.48650640004780143, 0.5037774000084028, 0.5206963999662548, 0.5369160000700504, 0.5555734999943525, 0.5689873000374064, 0.5871187000302598, 0.6025465000420809, 0.6192815999966115, 0.6361813000403345, 0.6535922000184655, 0.6691884000319988, 0.6882418000604957, 0.7040684999665245, 0.7201665000757203, 0.7357607000740245, 0.7525361999869347, 0.7695060999831185, 0.7867244000080973, 0.8024362999713048, 0.8207502000732347, 0.8356916999910027, 0.8532594999996945, 0.8688854000065476, 0.8886947999708354, 0.9028436000226066, 0.9205605000024661, 0.9363358999835327, 0.9561279000481591, 0.9680537000531331, 0.9851433000294492, 1.0023031000746414, 1.0196497000288218, 1.0357379000633955, 1.0542000000132248, 1.0699922000057995, 1.0884405999677256, 1.1023935000412166, 1.1208977000787854, 1.1362421000376344, 1.1537848999723792, 1.1697702000383288, 1.1859040000708774]
testtrial;27;0;0;1;False;3000;True;;8;-62.635540706838476;drag;L;3.8834982;-6.6047816;0;-59.55;7.66;1.2336424000095576;1.2337120999582112;1684225843.4748843;1684225843.4940147;1684225844.2490294;1684225844.7492237;1684225847.7478204;1684225848.981889;[0.0, 0.0, 0.0, 0.0, 0.0, 0.0, 0.0, 0.0, 0.0, 0.0, 0.0, 0.0, 0.0, 0.0, 0.0, 0.0, 0.0, 0.0, 0.0, 0.0, 0.0, 0.0, 0.0, 0.0, 0.0, 0.0, 0.0, 0.0, 0.0, 0.73701423, 1.4456817, 1.7858423, 2.2677362, 2.4378164, 2.4945097, 2.5228565, 2.57955, 2.6362433, 2.7212832, 2.7779768, 2.8630168, 2.8913634, 2.9197102, 2.9764037, 3.0614438, 3.1181371, 3.2031772, 3.2598708, 3.3449106, 3.3732576, 3.4016042, 3.4582977, 3.4866443, 3.5433376, 3.6000311, 3.6567245, 3.713418, 3.770111, 3.798458, 3.8268046, 3.8268046, 3.8551514, 3.8834982, 3.8834982, 3.8834982, 3.8834982, 3.8834982, 3.8834982, 3.8834982, 3.8834982, 3.8834982, 3.8834982, 3.8834982, 3.8834982];[0.0, 0.0, 0.0, 0.0, 0.0, 0.0, 0.0, 0.0, 0.0, 0.0, 0.0, 0.0, 0.0, 0.0, 0.0, 0.0, 0.0, 0.0, 0.0, 0.0, 0.0, 0.0, 0.0, 0.0, 0.0, 0.0, 0.0, 0.0, 0.0, -1.9275757, -3.6850712, -4.365392, -5.32918, -5.6409936, -5.811074, -5.9528074, -6.037847, -6.2362742, -6.4630475, -6.6047816, -6.774862, -6.8599014, -6.944942, -6.9732885, -7.086675, -7.143369, -7.228409, -7.2567554, -7.2567554, -7.228409, -7.228409, -7.2000623, -7.1150217, -7.086675, -7.0016356, -6.888248, -6.8032084, -6.7465153, -6.6898212, -6.6614747, -6.633128, -6.6047816, -6.6047816, -6.6047816, -6.6047816, -6.6047816, -6.6047816, -6.6047816, -6.6047816, -6.6047816, -6.6047816, -6.6047816, -6.6047816, -6.6047816];[0.004477699985727668, 0.018831499968655407, 0.03709969995543361, 0.052147299982607365, 0.07049289997667074, 0.0851977999554947, 0.1035718999337405, 0.11872369993943721, 0.13665040000341833, 0.15126339998096228, 0.16969439992681146, 0.18426539993379265, 0.20267969998531044, 0.21887159999459982, 0.23542639997322112, 0.2507158999796957, 0.2685529999434948, 0.2843569000251591, 0.3024038999574259, 0.3183551999973133, 0.3365359000163153, 0.3514990999829024, 0.36965390003751963, 0.38505089993122965, 0.402588399942033, 0.41860500001348555, 0.435857699951157, 0.45106819993816316, 0.47031160001643, 0.4853021999588236, 0.5018416999373585, 0.5184983999934047, 0.5359579999931157, 0.5510288999648765, 0.5706728999502957, 0.5852868999354541, 0.602195999934338, 0.6181879999348894, 0.6355521000223234, 0.6511492999270558, 0.6683105999836698, 0.6835043999599293, 0.7029061999637634, 0.7169301999965683, 0.7344806999899447, 0.7504184999270365, 0.7685139999957755, 0.7849812000058591, 0.8019708000356331, 0.8178171999752522, 0.8352385000325739, 0.8508414999814704, 0.8693821999477223, 0.8858050999697298, 0.9017349999630824, 0.9186380000319332, 0.9361559000099078, 0.951470399973914, 0.9702290999703109, 0.984216499957256, 1.0028763000154868, 1.0191509999567643, 1.0352832999778911, 1.0506624999688938, 1.0687707000179216, 1.0853925000410527, 1.1036459000315517, 1.1187388999387622, 1.1371558000100777, 1.1519301999360323, 1.1689216999802738, 1.1854917999589816, 1.201836199965328, 1.2174719999311492]
testtrial;28;0;0;1;False;1000;True;;8;74.58371122129819;drag;L;1.4740285;6.9165955;0;77.97;7.07;1.2656959000742063;1.2657825999194756;1684225849.7589605;1684225849.7774665;1684225850.5329142;1684225851.0329413;1684225852.0141144;1684225853.2804751;[0.0, 0.0, 0.0, 0.0, 0.0, 0.0, 0.0, 0.0, 0.0, 0.0, 0.0, 0.0, 0.0, 0.0, 0.0, 0.0, 0.0, 0.0, 0.0, 0.0, 0.0, 0.0, 0.0, 0.0, 0.0, 0.0, 0.0, 0.0, 0.0, 0.0, 0.0, 0.0, 0.3401604, 0.79370767, 1.1055214, 1.3606416, 1.5590686, 1.7574955, 1.7858423, 1.8141888, 1.8425356, 1.8425356, 1.8425356, 1.8141888, 1.8141888, 1.7858423, 1.7858423, 1.7858423, 1.7858423, 1.7858423, 1.7858423, 1.7858423, 1.7858423, 1.7858423, 1.7858423, 1.7291489, 1.7008021, 1.6157619, 1.5590686, 1.5307219, 1.5307219, 1.5023751, 1.4740285, 1.4740285, 1.4740285, 1.4740285, 1.4740285, 1.4740285, 1.4740285, 1.4740285, 1.4740285, 1.4740285, 1.4740285, 1.4740285, 1.4740285, 1.4740285];[0.0, 0.0, 0.0, 0.0, 0.0, 0.0, 0.0, 0.0, 0.0, 0.0, 0.0, 0.0, 0.0, 0.0, 0.0, 0.0, 0.0, 0.0, 0.0, 0.0, 0.0, 0.0, 0.0, 0.0, 0.0, 0.0, 0.0, 0.0, 0.0, 0.0, 0.0, 0.0, 2.0409625, 4.025232, 5.1024065, 5.811074, 6.321315, 6.831555, 7.0016356, 7.2000623, 7.313449, 7.3984895, 7.5685697, 7.681956, 7.795343, 7.9654226, 8.050464, 8.107157, 8.135503, 8.16385, 8.16385, 8.16385, 8.16385, 8.16385, 8.16385, 8.07881, 7.795343, 7.5118756, 7.228409, 7.1717157, 7.1150217, 7.0583286, 7.029982, 7.0016356, 6.9732885, 6.944942, 6.9165955, 6.9165955, 6.9165955, 6.9165955, 6.9165955, 6.9165955, 6.9165955, 6.9165955, 6.9165955, 6.9165955];[0.003877399954944849, 0.0181126999668777, 0.034421199932694435, 0.05182950000744313, 0.06794789992272854, 0.08539769996423274, 0.10128750000149012, 0.1183827999047935, 0.13497319992166013, 0.152597599895671, 0.16792419995181262, 0.18620159989222884, 0.20101209997665137, 0.21880089992191643, 0.23453529994003475, 0.25239229993894696, 0.26768249995075166, 0.2858633999712765, 0.30051109998021275, 0.31937489996198565, 0.33476739993784577, 0.35170509992167354, 0.36650579993147403, 0.3850430999882519, 0.4002386999782175, 0.41878329997416586, 0.4360310999909416, 0.45072019996587187, 0.46672429994214326, 0.4857094999169931, 0.5018449999624863, 0.5192683999193832, 0.5356393998954445, 0.5530882999300957, 0.5681623999262229, 0.5856375999283046, 0.6012809999519959, 0.6172778999898583, 0.6342297999653965, 0.651297300006263, 0.6674674999667332, 0.6853347999276593, 0.7012913998914883, 0.7189534999197349, 0.7338613999309018, 0.7513426999794319, 0.768162599997595, 0.7846396999666467, 0.8011802999535576, 0.8178347999928519, 0.8332261999603361, 0.8517236999468878, 0.8675462999381125, 0.8842231999151409, 0.9009051999310032, 0.9176168999401852, 0.9338336999062449, 0.9523497999180108, 0.966722899931483, 0.9849713000003248, 0.9999398998916149, 1.0174617999000475, 1.0343034999677911, 1.049710699939169, 1.0669715999392793, 1.0848211999982595, 1.0999262999976054, 1.118799699936062, 1.1341242999769747, 1.152374199940823, 1.1681732999859378, 1.1855175999226049, 1.200611799955368, 1.2183400999056175, 1.2335308999754488, 1.2517218999564648]
testtrial;29;0;0;1;False;3000;True;;8;-123.937410554188;drag;L;-4.252005;-6.3496614;0;-123.81;7.64;1.0674474999541417;1.0674815999809653;1684225854.0987058;1684225854.1104195;1684225854.8637664;1684225855.3642125;1684225858.3631306;1684225859.4309218;[0.0, 0.0, 0.0, 0.0, 0.0, 0.0, 0.0, 0.0, 0.0, 0.0, 0.0, 0.0, 0.0, 0.0, 0.0, 0.0, 0.0, 0.0, 0.0, 0.0, 0.0, 0.0, 0.0, 0.0, 0.0, 0.0, 0.0, 0.0, 0.0, -0.6236274, -1.6157619, -2.466163, -2.9764037, -3.3449106, -3.6283777, -3.713418, -3.8551514, -3.911845, -3.9401915, -3.968538, -3.968538, -3.968538, -3.996885, -3.996885, -4.0535784, -4.110272, -4.1386185, -4.166965, -4.166965, -4.1953115, -4.1953115, -4.2236586, -4.252005, -4.252005, -4.252005, -4.252005, -4.252005, -4.252005, -4.252005, -4.252005, -4.252005, -4.252005, -4.252005, -4.252005];[0.0, 0.0, 0.0, 0.0, 0.0, 0.0, 0.0, 0.0, 0.0, 0.0, 0.0, 0.0, 0.0, 0.0, 0.0, 0.0, 0.0, 0.0, 0.0, 0.0, 0.0, 0.0, 0.0, 0.0, 0.0, 0.0, 0.0, 0.0, 0.0, -0.79370767, -2.012616, -3.1748307, -3.8834982, -4.422086, -4.7905927, -4.9039793, -5.1024065, -5.1874466, -5.215793, -5.2441397, -5.2724867, -5.3858733, -5.527607, -5.697687, -5.9528074, -6.037847, -6.1228876, -6.2079277, -6.264621, -6.264621, -6.292968, -6.321315, -6.3496614, -6.3496614, -6.3496614, -6.3496614, -6.3496614, -6.3496614, -6.3496614, -6.3496614, -6.3496614, -6.3496614, -6.3496614, -6.3496614];[0.004049399984069169, 0.01802379998844117, 0.03479260008316487, 0.051496900035999715, 0.0702023000922054, 0.08579060004558414, 0.10286890005227178, 0.11719690007157624, 0.13438200007658452, 0.15128890005871654, 0.16911240003537387, 0.1863781000720337, 0.20193630002904683, 0.2179554000031203, 0.23569610004778951, 0.2509511000243947, 0.268313099979423, 0.28420550003647804, 0.3018371000653133, 0.3182716000592336, 0.335649500018917, 0.3515133000910282, 0.36859530000947416, 0.3857023000018671, 0.4016423000721261, 0.41867719998117536, 0.43528259999584407, 0.4508808000246063, 0.4682623000117019, 0.4853220999939367, 0.5023076999932528, 0.5182417000178248, 0.5363111000042409, 0.5520290000131354, 0.5687240000115708, 0.5862813000567257, 0.6033682000124827, 0.6186577000189573, 0.6360859000124037, 0.6521203999873251, 0.6690067000454292, 0.6858784999931231, 0.7029274000087753, 0.7198115000501275, 0.7366334000835195, 0.7516811999958009, 0.7698765000095591, 0.7853421000763774, 0.8026176000712439, 0.8176969999913126, 0.8356982000404969, 0.8513254000572488, 0.8679083000170067, 0.8853813000023365, 0.9028761000372469, 0.9185225000837818, 0.9369071000255644, 0.9523746999911964, 0.9705558000132442, 0.9850810000207275, 1.0025884000351653, 1.0170575000811368, 1.0349042000016198, 1.0507026000414044]
