subj;trial;block;prior;kappa;ct;delay;fix;keypressed;R;T_Angle;resp_mod;choice_x;choice_y;init_resp_angle;choiceAngle;choiceR;RT;MT;ts_b;ts_f;ts_p;ts_d;ts_r;ts_e;m_pos_x;m_pos_y;m_clock
testtt;0;0;0;1;False;1000;False;;8;100.92163427096355;eye;L;nan;nan;0;nan;nan;0.0015501000452786684;0.0016090000281110406;1684226013.75825;1684226013.7673447;1684226014.5199988;1684226015.0047462;1684226015.005729;1684226015.0072105;[];[];[]
testtt;0;0;0;1;False;1000;True;;8;-11.572796938361547;eye;L;8.30739814043045;-1.259774699807167;0;-8.62;8.4;0.783170499955304;0.783253200002946;1684226015.5571663;1684226015.5674295;1684226016.3239596;1684226016.8229475;1684226017.804435;1684226018.5875938;[];[];[]
testtt;1;0;0;1;False;3000;True;;8;74.81761618045157;eye;L;2.620053470134735;6.6888494163751595;0;68.61;7.18;1.0488259000703692;1.0488921999931335;1684226019.4649286;1684226019.485934;1684226020.238924;1684226020.7387087;1684226023.7391818;1684226024.7879918;[];[];[]
testtt;2;0;0;1;False;3000;True;;8;-101.38140938273773;eye;L;-0.8778018355369568;-7.276320701837539;0;-96.88;7.33;2.1500967000611126;2.1502130000153556;1684226025.5914834;1684226025.601374;1684226026.3556414;1684226026.855196;1684226029.856029;1684226032.005552;[];[];[]
testtt;3;0;0;1;False;1000;True;;8;-33.28303846048309;eye;L;7.3461726903915405;-3.9139961913228034;0;-28.05;8.32;1.2166705999989063;1.2167431999696419;1684226032.7531266;1684226032.7682042;1684226033.5231907;1684226034.0235553;1684226035.0039496;1684226036.2207294;[];[];[]
testtt;4;0;0;1;False;1000;False;;8;-36.5312297891853;eye;L;nan;nan;0;nan;nan;0.0016633999766781926;0.001752600073814392;1684226036.9664574;1684226036.9841974;1684226037.7205634;1684226037.7205634;1684226037.7205634;1684226037.722926;[];[];[]
testtt;4;0;0;1;False;1000;True;;8;-129.21784272577568;eye;L;-3.636500746011734;-5.91407376229763;0;-121.59;6.94;1.1638864000560716;1.1639584000222385;1684226038.2918184;1684226038.3007762;1684226039.0536096;1684226039.5553443;1684226040.5385299;1684226041.7033286;[];[];[]
testtt;5;0;0;1;False;3000;True;;8;143.44962589448068;eye;L;-6.034952878952026;4.288117691874504;0;144.6;7.4;0.900284199975431;0.9003487000009045;1684226042.3908734;1684226042.401145;1684226043.1536303;1684226043.655952;1684226046.6541886;1684226047.5551138;[];[];[]
testtt;6;0;0;1;False;1000;True;;8;139.71716618069377;eye;L;-4.970877110958099;4.7395708389580244;0;136.36;6.87;0.8666397999040782;0.8667221000650898;1684226048.4257748;1684226048.434133;1684226049.186482;1684226049.6884325;1684226050.6693323;1684226051.536681;[];[];[]
testtt;7;0;0;1;False;3000;True;;8;125.9887145857453;eye;L;-4.375948756933212;4.250792084634304;0;135.83;6.1;1.3471548999659717;1.3472486999817193;1684226052.3640258;1684226052.3834407;1684226053.1395967;1684226053.6380677;1684226056.638204;1684226057.9862452;[];[];[]
testtt;8;0;0;1;False;3000;True;;8;-52.02503907523795;eye;L;3.9756407737731934;-5.558806367218494;0;-54.43;6.83;0.7998345999512821;0.7999208000255749;1684226058.8328972;1684226058.8496048;1684226059.6025271;1684226060.104328;1684226063.10278;1684226063.9032426;[];[];[]
testtt;9;0;0;1;False;1000;True;;8;-112.76902040500538;eye;L;-2.2851500809192657;-7.148841811716556;0;-107.73;7.51;1.0026953000342473;1.0027460000710562;1684226064.7275774;1684226064.7325795;1684226065.4848626;1684226065.986463;1684226066.9673824;1684226067.970745;[];[];[]
testtt;10;0;0;1;False;1000;True;;8;83.26435951226713;eye;L;0.9827064871788025;8.202900994196533;0;83.17;8.26;0.6834840000374243;0.6835627000546083;1684226068.7536533;1684226068.7654958;1684226069.5191033;1684226070.020533;1684226071.0027187;1684226071.6855278;[];[];[]
testtt;11;0;0;1;False;3000;True;;8;-40.40474393643324;eye;L;5.128373384475708;-3.9037957370281218;0;-37.28;6.45;1.0484037999995053;1.048513300018385;1684226072.438528;1684226072.4488544;1684226073.2030776;1684226073.705037;1684226076.7025654;1684226077.7513049;[];[];[]
testtt;12;0;0;1;False;1000;True;;8;-53.0800058348295;eye;L;4.874623537063599;-4.472654329240322;0;-42.54;6.62;0.83344550000038;0.833538799895905;1684226078.5871558;1684226078.598158;1684226079.3521209;1684226079.8532073;1684226080.835925;1684226081.6694186;[];[];[]
testtt;13;0;0;1;False;3000;True;;8;53.41057073563548;eye;L;5.4575775265693665;6.854637999460101;0;51.47;8.76;0.6813033000798896;0.6813750000437722;1684226082.3467412;1684226082.3650944;1684226083.1186726;1684226083.6194751;1684226086.6200736;1684226087.301319;[];[];[]
testtt;14;0;0;1;False;3000;True;;8;-174.0949266358568;eye;L;-6.9278756976127625;-2.1307156205177304;0;-162.9;7.25;1.5156232999870554;1.5156923000467941;1684226087.9760573;1684226087.9823294;1684226088.7354698;1684226089.236406;1684226092.2353203;1684226093.7508383;[];[];[]
testtt;15;0;0;1;False;1000;True;;8;15.458233628525685;eye;L;9.282294988632202;3.435901346057653;0;20.31;9.9;0.9332446999615058;0.9333059000782669;1684226094.4716845;1684226094.480946;1684226095.2361522;1684226095.7366993;1684226096.7166758;1684226097.6502078;[];[];[]
testtt;16;0;0;1;False;1000;True;;8;126.43865121766083;eye;L;-4.282205909490585;6.696491247788071;0;122.6;7.95;0.9327973000472412;0.9329308999003842;1684226098.3258278;1684226098.3310869;1684226099.0850224;1684226099.5853984;1684226100.5669186;1684226101.5001323;[];[];[]
testtt;17;0;0;1;False;3000;True;;8;46.718696796699284;eye;L;5.286434769630432;6.784785404428839;0;52.08;8.6;0.715229699970223;0.7152882000664249;1684226102.1964107;1684226102.214183;1684226102.9688437;1684226103.469479;1684226106.4674666;1684226107.1826344;[];[];[]
testtt;18;0;0;1;False;3000;True;;8;13.695047363370735;eye;L;7.3685325384140015;2.6472936540842054;0;19.76;7.83;0.6660991000244394;0.6661436000140384;1684226108.0124433;1684226108.0306644;1684226108.7842557;1684226109.2862482;1684226112.2840617;1684226112.9500463;[];[];[]
testtt;19;0;0;1;False;1000;True;;8;116.45945404326115;eye;L;-3.1580284237861633;8.146773676760494;0;111.19;8.74;0.8498210000107065;0.8505273000337183;1684226113.7808256;1684226113.7972777;1684226114.55106;1684226115.051483;1684226116.0325425;1684226116.8827832;[];[];[]
testtt;20;0;0;1;False;3000;False;;8;135.54146595328734;eye;L;nan;nan;0;nan;nan;0.0012901000445708632;0.0013278999831527472;1684226117.57942;1684226117.5979161;1684226118.3323748;1684226118.3323748;1684226118.3323748;1684226118.3345504;[];[];[]
testtt;20;0;0;1;False;3000;True;;8;-35.1317923239017;eye;L;6.187146842479706;-3.9034150242805477;0;-32.25;7.32;0.8324826998868957;0.8325982999522239;1684226118.9020207;1684226118.912743;1684226119.6667356;1684226120.1677537;1684226123.1665583;1684226123.9988918;[];[];[]
testtt;21;0;0;1;False;1000;True;;8;131.962556711884;eye;L;-4.525866985321045;6.811957831308245;0;123.6;8.18;1.1662539999233559;1.1664267000742257;1684226124.724236;1684226124.7289128;1684226125.4827993;1684226125.9852672;1684226126.966982;1684226128.1327734;[];[];[]
testtt;22;0;0;1;False;1000;True;;8;0.28810381005029395;eye;L;8.354337513446808;0.33823365122079846;0;2.32;8.36;0.7187465999741107;0.7188127000117674;1684226128.8961723;1684226128.914511;1684226129.6673653;1684226130.167509;1684226131.1496792;1684226131.8686807;[];[];[]
testtt;23;0;0;1;False;3000;True;;8;-104.94189010353004;eye;L;-1.9119057357311249;-6.577011895179748;0;-106.21;6.85;1.8155792000470683;1.8156550999265164;1684226132.5748744;1684226132.5797987;1684226133.3344243;1684226133.835382;1684226136.8329618;1684226138.6488357;[];[];[]
testtt;24;0;0;1;False;1000;True;;8;-22.82547757537441;eye;L;7.6561890840530396;-2.414443056285381;0;-17.5;8.03;0.750409199972637;0.7504827999509871;1684226139.4524446;1684226139.4616933;1684226140.2157962;1684226140.7168143;1684226141.6987286;1684226142.4496717;[];[];[]
testtt;25;0;0;1;False;3000;True;;8;52.332055163101046;eye;L;5.421016275882721;5.391994933784008;0;44.85;7.65;0.6321934999432415;0.6322785000083968;1684226143.2549014;1684226143.2625322;1684226144.0163176;1684226144.5175939;1684226147.5168338;1684226148.1497207;[];[];[]
testtt;26;0;0;1;False;3000;True;;8;-43.43300302912578;eye;L;6.1770541071891785;-4.923026163876056;0;-38.55;7.9;1.132414699997753;1.1325053999898955;1684226149.0325778;1684226149.0445855;1684226149.7999487;1684226150.2999232;1684226153.2986906;1684226154.4316406;[];[];[]
testtt;27;0;0;1;False;1000;True;;8;109.41472685860012;eye;L;-1.7526240944862366;7.40728352330625;0;103.31;7.61;0.6174592999741435;0.6175020000664517;1684226155.260546;1684226155.2772663;1684226156.0335484;1684226156.5340457;1684226157.5139146;1684226158.1312382;[];[];[]
testtt;28;0;0;1;False;1000;True;;8;20.91990424988651;eye;L;6.652704834938049;2.7905696019530293;0;22.76;7.21;0.4661056000040844;0.4661562000401318;1684226158.9711766;1684226158.9773295;1684226159.730244;1684226160.2334905;1684226161.2137332;1684226161.6801567;[];[];[]
testtt;29;0;0;1;False;3000;True;;8;146.15524061287047;eye;L;-5.4935798943042755;5.24609480984509;0;136.32;7.6;0.6319228999782354;0.631981199956499;1684226162.5009727;1684226162.5113938;1684226163.26361;1684226163.7658918;1684226166.7642288;1684226167.3964276;[];[];[]
testtt;30;0;0;1;False;3000;True;;8;72.56616637305623;eye;L;2.480716645717621;8.769459788314997;0;74.2;9.11;0.6664854999398813;0.6666177000151947;1684226168.1923282;1684226168.2109208;1684226168.9652886;1684226169.4667356;1684226172.4643946;1684226173.1310139;[];[];[]
testtt;31;0;0;1;False;1000;True;;8;-50.96909768812069;eye;L;5.9804858565330505;-4.4534705668687815;0;-36.67;7.46;1.0328669000882655;1.032926099956967;1684226174.0137796;1684226174.026828;1684226174.780618;1684226175.2807093;1684226176.2631078;1684226177.2959213;[];[];[]
testtt;32;0;0;1;False;1000;True;;8;-24.79663554481903;eye;L;7.901000201702118;-3.526531465351581;0;-24.05;8.65;0.6994657999603078;0.699531999998726;1684226177.9782364;1684226177.9932387;1684226178.747442;1684226179.2482965;1684226180.2306755;1684226180.9296913;[];[];[]
testtt;33;0;0;1;False;3000;True;;8;-48.83594259351741;eye;L;6.703419923782349;-4.466973893344402;0;-33.68;8.06;0.7491691999603063;0.749241599929519;1684226181.7390695;1684226181.7423127;1684226182.4964697;1684226182.9981594;1684226185.9963484;1684226186.745728;[];[];[]
testtt;34;0;0;1;False;3000;True;;8;55.28285281776453;eye;L;5.885499536991119;5.837411987408995;0;44.76;8.29;1.2676896000048146;1.2677452999632806;1684226187.5256667;1684226187.5439296;1684226188.2970247;1684226188.7972155;1684226191.7949398;1684226193.062443;[];[];[]
testtt;35;0;0;1;False;1000;True;;8;-149.86977385953486;eye;L;-5.94853213429451;-5.00847789645195;0;-139.9;7.78;1.5527009000070393;1.55274690000806;1684226193.8318064;1684226193.8418398;1684226194.5949223;1684226195.0963058;1684226196.0776274;1684226197.629782;[];[];[]
testtt;36;0;0;1;False;1000;True;;8;59.831373114600936;eye;L;4.021246075630188;6.031953049823642;0;56.31;7.25;0.6987388998968527;0.6988092000829056;1684226198.360615;1684226198.3753772;1684226199.1285849;1684226199.6299694;1684226200.613311;1684226201.3120587;[];[];[]
testtt;37;0;0;1;False;3000;True;;8;-175.99574860084542;eye;L;-7.016353607177734;-1.0222231820225716;0;-171.71;7.09;1.9143349999794737;1.9144335000310093;1684226202.1041338;1684226202.1081471;1684226202.8627927;1684226203.36454;1684226206.3638303;1684226208.2776947;[];[];[]
testtt;38;0;0;1;False;1000;True;;8;149.4142625376481;eye;L;-6.321422576904297;4.7483691483736035;0;143.09;7.91;1.2995866000419483;1.2996500000590459;1684226208.987349;1684226208.9915493;1684226209.7450662;1684226210.245898;1684226211.2281132;1684226212.5275607;[];[];[]
testtt;39;0;0;1;False;3000;True;;8;-5.673317382858293;eye;L;7.755083620548248;-0.7570624262094497;0;-5.58;7.79;1.0988434000173584;1.0989821000257507;1684226213.2568462;1684226213.275101;1684226214.0294771;1684226214.5301595;1684226217.5301576;1684226218.628682;[];[];[]
testtt;40;0;0;1;False;3000;True;;8;-40.90279391574373;eye;L;7.9202083349227905;-4.0723934948444365;0;-27.21;8.91;1.3984441000502557;1.39851800003089;1684226219.302998;1684226219.308064;1684226220.0606647;1684226220.5627577;1684226223.5627723;1684226224.9612732;[];[];[]
testtt;41;0;0;1;False;1000;True;;8;17.608761559827023;eye;L;7.924155056476593;1.705842400342226;0;12.15;8.11;0.7855598999885842;0.7856175000779331;1684226225.703434;1684226225.7074258;1684226226.460717;1684226226.962752;1684226227.9434764;1684226228.7291908;[];[];[]
testtt;42;0;0;1;False;1000;True;;8;80.63313522137803;eye;L;0.7958527207374573;8.597371402010321;0;84.71;8.63;1.0162608000682667;1.0165595000144094;1684226229.5073555;1684226229.523603;1684226230.2769055;1684226230.7795203;1684226231.7608855;1684226232.7774746;[];[];[]
testtt;43;0;0;1;False;3000;True;;8;174.7345689262916;eye;L;-6.885421544313431;0.8101608239114284;0;173.29;6.93;1.6478471000446007;1.6479206000221893;1684226233.6367004;1684226233.6567705;1684226234.4106882;1684226234.9122505;1684226237.9110563;1684226239.5594447;[];[];[]
testtt;44;0;0;1;False;3000;True;;8;-95.96002594843195;eye;L;-0.11417576670646667;-7.2704215452075;0;-90.9;7.27;1.4989974000491202;1.4990587000502273;1684226240.3250983;1684226240.3398244;1684226241.094596;1684226241.595692;1684226244.5946186;1684226246.0929267;[];[];[]
testtt;45;0;0;1;False;1000;True;;8;152.74603285467865;eye;L;-6.671126455068588;3.1740727722644806;0;154.56;7.39;1.2178713999455795;1.2179274000227451;1684226246.9459803;1684226246.9566424;1684226247.7100332;1684226248.2123396;1684226249.192619;1684226250.4102736;[];[];[]
testtt;46;0;0;1;False;1000;True;;8;55.56997086507463;eye;L;5.20115727186203;7.521393660083413;0;55.34;9.14;1.415576700004749;1.4156410000286996;1684226251.083038;1684226251.088958;1684226251.8427033;1684226252.3449106;1684226253.3259957;1684226254.742376;[];[];[]
testtt;47;0;0;1;False;3000;True;;8;163.31613735788375;eye;L;-7.525326669216156;2.5972258307039735;0;160.96;7.96;1.1495251000160351;1.1496237999526784;1684226255.5956225;1684226255.6054158;1684226256.3593783;1684226256.862301;1684226259.8602028;1684226261.0094142;[];[];[]
testtt;48;0;0;1;False;3000;True;;8;57.17485414478263;eye;L;4.132689714431763;7.285338835045695;0;60.44;8.38;0.8311436999356374;0.831257599988021;1684226261.8346198;1684226261.839499;1684226262.6272142;1684226263.126858;1684226266.126411;1684226266.9586353;[];[];[]
testtt;49;0;0;1;False;1000;True;;8;-122.84270758084153;eye;L;-3.38187038898468;-6.175209930539131;0;-118.71;7.04;1.0988132000202313;1.0988770000403747;1684226267.7550573;1684226267.7718067;1684226268.524596;1684226269.0269327;1684226270.008044;1684226271.106913;[];[];[]
